{
  "datasetJSONCreationDateTime": "2025-10-20T14:30:33",
  "datasetJSONVersion": "1.1.0",
  "records": 1191,
  "name": "ADAE",
  "label": "Adverse Events Analysis Dataset",
  "columns": [
    {
      "dataType": "string",
      "length": 12,
      "itemOID": "STUDYID",
      "name": "STUDYID",
      "label": "Study Identifier"
    },
    {
      "dataType": "string",
      "length": 2,
      "itemOID": "DOMAIN",
      "name": "DOMAIN",
      "label": "Domain Abbreviation"
    },
    {
      "dataType": "string",
      "length": 11,
      "itemOID": "USUBJID",
      "name": "USUBJID",
      "label": "Unique Subject Identifier"
    },
    {
      "dataType": "float",
      "itemOID": "AESEQ",
      "name": "AESEQ",
      "label": "Sequence Number"
    },
    {
      "dataType": "string",
      "length": 3,
      "itemOID": "AESPID",
      "name": "AESPID",
      "label": "Sponsor-Defined Identifier"
    },
    {
      "dataType": "string",
      "length": 46,
      "itemOID": "AETERM",
      "name": "AETERM",
      "label": "Reported Term for the Adverse Event"
    },
    {
      "dataType": "string",
      "length": 46,
      "itemOID": "AELLT",
      "name": "AELLT",
      "label": "Lowest Level Term"
    },
    {
      "dataType": "float",
      "itemOID": "AELLTCD",
      "name": "AELLTCD",
      "label": "Lowest Level Term Code"
    },
    {
      "dataType": "string",
      "length": 46,
      "itemOID": "AEDECOD",
      "name": "AEDECOD",
      "label": "Dictionary-Derived Term"
    },
    {
      "dataType": "float",
      "itemOID": "AEPTCD",
      "name": "AEPTCD",
      "label": "Preferred Term Code"
    },
    {
      "dataType": "string",
      "length": 8,
      "itemOID": "AEHLT",
      "name": "AEHLT",
      "label": "High Level Term"
    },
    {
      "dataType": "float",
      "itemOID": "AEHLTCD",
      "name": "AEHLTCD",
      "label": "High Level Term Code"
    },
    {
      "dataType": "string",
      "length": 9,
      "itemOID": "AEHLGT",
      "name": "AEHLGT",
      "label": "High Level Group Term"
    },
    {
      "dataType": "float",
      "itemOID": "AEHLGTCD",
      "name": "AEHLGTCD",
      "label": "High Level Group Term Code"
    },
    {
      "dataType": "string",
      "length": 67,
      "itemOID": "AEBODSYS",
      "name": "AEBODSYS",
      "label": "Body System or Organ Class"
    },
    {
      "dataType": "float",
      "itemOID": "AEBDSYCD",
      "name": "AEBDSYCD",
      "label": "Body System or Organ Class Code"
    },
    {
      "dataType": "string",
      "length": 67,
      "itemOID": "AESOC",
      "name": "AESOC",
      "label": "Primary System Organ Class"
    },
    {
      "dataType": "float",
      "itemOID": "AESOCCD",
      "name": "AESOCCD",
      "label": "Primary System Organ Class Code"
    },
    {
      "dataType": "string",
      "length": 8,
      "itemOID": "AESEV",
      "name": "AESEV",
      "label": "Severity/Intensity"
    },
    {
      "dataType": "string",
      "length": 1,
      "itemOID": "AESER",
      "name": "AESER",
      "label": "Serious Event"
    },
    {
      "dataType": "string",
      "itemOID": "AEACN",
      "name": "AEACN",
      "label": "Action Taken with Study Treatment"
    },
    {
      "dataType": "string",
      "itemOID": "AEREL",
      "name": "AEREL",
      "label": "Causality"
    },
    {
      "dataType": "string",
      "length": 26,
      "itemOID": "AEOUT",
      "name": "AEOUT",
      "label": "Outcome of Adverse Event"
    },
    {
      "dataType": "string",
      "length": 1,
      "itemOID": "AESCAN",
      "name": "AESCAN",
      "label": "Involves Cancer"
    },
    {
      "dataType": "string",
      "length": 1,
      "itemOID": "AESCONG",
      "name": "AESCONG",
      "label": "Congenital Anomaly or Birth Defect"
    },
    {
      "dataType": "string",
      "length": 1,
      "itemOID": "AESDISAB",
      "name": "AESDISAB",
      "label": "Persist or Signif Disability/Incapacity"
    },
    {
      "dataType": "string",
      "length": 1,
      "itemOID": "AESDTH",
      "name": "AESDTH",
      "label": "Results in Death"
    },
    {
      "dataType": "string",
      "length": 1,
      "itemOID": "AESHOSP",
      "name": "AESHOSP",
      "label": "Requires or Prolongs Hospitalization"
    },
    {
      "dataType": "string",
      "length": 1,
      "itemOID": "AESLIFE",
      "name": "AESLIFE",
      "label": "Is Life Threatening"
    },
    {
      "dataType": "string",
      "length": 1,
      "itemOID": "AESOD",
      "name": "AESOD",
      "label": "Occurred with Overdose"
    },
    {
      "dataType": "string",
      "length": 10,
      "itemOID": "AEDTC",
      "name": "AEDTC",
      "label": "Date/Time of Collection"
    },
    {
      "dataType": "string",
      "length": 10,
      "itemOID": "AESTDTC",
      "name": "AESTDTC",
      "label": "Start Date/Time of Adverse Event"
    },
    {
      "dataType": "string",
      "itemOID": "AEENDTC",
      "name": "AEENDTC",
      "label": "End Date/Time of Adverse Event"
    },
    {
      "dataType": "float",
      "itemOID": "AESTDY",
      "name": "AESTDY",
      "label": "Study Day of Start of Adverse Event"
    },
    {
      "dataType": "float",
      "itemOID": "AEENDY",
      "name": "AEENDY",
      "label": "Study Day of End of Adverse Event"
    },
    {
      "dataType": "date",
      "itemOID": "TRTSDT",
      "name": "TRTSDT",
      "label": "Date of First Exposure to Treatment",
      "targetDataType": "integer"
    },
    {
      "dataType": "date",
      "itemOID": "TRTEDT",
      "name": "TRTEDT",
      "label": "Date of Last Exposure to Treatment",
      "targetDataType": "integer"
    },
    {
      "dataType": "date",
      "itemOID": "DTHDT",
      "name": "DTHDT",
      "label": "Date of Death",
      "targetDataType": "integer"
    },
    {
      "dataType": "date",
      "itemOID": "EOSDT",
      "name": "EOSDT",
      "label": "End of Study Date",
      "targetDataType": "integer"
    },
    {
      "dataType": "datetime",
      "itemOID": "ASTDTM",
      "name": "ASTDTM",
      "label": "Analysis Start Date/Time",
      "targetDataType": "integer"
    },
    {
      "dataType": "string",
      "itemOID": "ASTDTF",
      "name": "ASTDTF",
      "label": "Analysis Start Date Imputation Flag"
    },
    {
      "dataType": "string",
      "length": 1,
      "itemOID": "ASTTMF",
      "name": "ASTTMF",
      "label": "Analysis Start Time Imputation Flag"
    },
    {
      "dataType": "datetime",
      "itemOID": "AENDTM",
      "name": "AENDTM",
      "label": "Analysis End Date/Time",
      "targetDataType": "integer"
    },
    {
      "dataType": "string",
      "itemOID": "AENDTF",
      "name": "AENDTF",
      "label": "Analysis End Date Imputation Flag"
    },
    {
      "dataType": "string",
      "itemOID": "AENTMF",
      "name": "AENTMF",
      "label": "Analysis End Time Imputation Flag"
    },
    {
      "dataType": "date",
      "itemOID": "ASTDT",
      "name": "ASTDT",
      "label": "Analysis Start Date",
      "targetDataType": "integer"
    },
    {
      "dataType": "date",
      "itemOID": "AENDT",
      "name": "AENDT",
      "label": "Analysis End Date",
      "targetDataType": "integer"
    },
    {
      "dataType": "float",
      "itemOID": "ASTDY",
      "name": "ASTDY",
      "label": "Analysis Start Relative Day"
    },
    {
      "dataType": "float",
      "itemOID": "AENDY",
      "name": "AENDY",
      "label": "Analysis End Relative Day"
    },
    {
      "dataType": "float",
      "itemOID": "ADURN",
      "name": "ADURN",
      "label": "Analysis Duration (N)"
    },
    {
      "dataType": "string",
      "itemOID": "ADURU",
      "name": "ADURU",
      "label": "Analysis Duration Units"
    },
    {
      "dataType": "datetime",
      "itemOID": "LDOSEDTM",
      "name": "LDOSEDTM",
      "label": "End Date/Time of Last Dose",
      "targetDataType": "integer"
    },
    {
      "dataType": "float",
      "itemOID": "DOSEON",
      "name": "DOSEON",
      "label": "Treatment Dose"
    },
    {
      "dataType": "string",
      "itemOID": "DOSEU",
      "name": "DOSEU",
      "label": "Treatment Dose Unit"
    },
    {
      "dataType": "string",
      "length": 8,
      "itemOID": "ASEV",
      "name": "ASEV",
      "label": "Analysis Severity/Intensity"
    },
    {
      "dataType": "string",
      "itemOID": "AREL",
      "name": "AREL",
      "label": "Analysis Causality"
    },
    {
      "dataType": "string",
      "itemOID": "TRTEMFL",
      "name": "TRTEMFL",
      "label": "Treatment Emergent Analysis Flag"
    },
    {
      "dataType": "string",
      "length": 1,
      "itemOID": "ASEVN",
      "name": "ASEVN",
      "label": "Analysis Severity/Intensity (N)"
    },
    {
      "dataType": "string",
      "itemOID": "AOCCIFL",
      "name": "AOCCIFL",
      "label": "1st Max Sev./Int. Occurrence Flag"
    },
    {
      "dataType": "string",
      "length": 4,
      "itemOID": "SUBJID",
      "name": "SUBJID",
      "label": "Subject Identifier for the Study"
    },
    {
      "dataType": "string",
      "length": 10,
      "itemOID": "RFSTDTC",
      "name": "RFSTDTC",
      "label": "Subject Reference Start Date/Time"
    },
    {
      "dataType": "string",
      "length": 10,
      "itemOID": "RFENDTC",
      "name": "RFENDTC",
      "label": "Subject Reference End Date/Time"
    },
    {
      "dataType": "string",
      "length": 10,
      "itemOID": "RFXSTDTC",
      "name": "RFXSTDTC",
      "label": "Date/Time of First Study Treatment"
    },
    {
      "dataType": "string",
      "length": 10,
      "itemOID": "RFXENDTC",
      "name": "RFXENDTC",
      "label": "Date/Time of Last Study Treatment"
    },
    {
      "dataType": "string",
      "itemOID": "RFICDTC",
      "name": "RFICDTC",
      "label": "Date/Time of Informed Consent"
    },
    {
      "dataType": "string",
      "length": 16,
      "itemOID": "RFPENDTC",
      "name": "RFPENDTC",
      "label": "Date/Time of End of Participation"
    },
    {
      "dataType": "string",
      "itemOID": "DTHDTC",
      "name": "DTHDTC",
      "label": "Date/Time of Death"
    },
    {
      "dataType": "string",
      "itemOID": "DTHFL",
      "name": "DTHFL",
      "label": "Subject Death Flag"
    },
    {
      "dataType": "string",
      "length": 3,
      "itemOID": "SITEID",
      "name": "SITEID",
      "label": "Study Site Identifier"
    },
    {
      "dataType": "float",
      "itemOID": "AGE",
      "name": "AGE",
      "label": "Age"
    },
    {
      "dataType": "string",
      "length": 5,
      "itemOID": "AGEU",
      "name": "AGEU",
      "label": "Age Units"
    },
    {
      "dataType": "string",
      "length": 1,
      "itemOID": "SEX",
      "name": "SEX",
      "label": "Sex"
    },
    {
      "dataType": "string",
      "length": 32,
      "itemOID": "RACE",
      "name": "RACE",
      "label": "Race"
    },
    {
      "dataType": "string",
      "length": 22,
      "itemOID": "ETHNIC",
      "name": "ETHNIC",
      "label": "Ethnicity"
    },
    {
      "dataType": "string",
      "length": 6,
      "itemOID": "ARMCD",
      "name": "ARMCD",
      "label": "Planned Arm Code"
    },
    {
      "dataType": "string",
      "length": 20,
      "itemOID": "ARM",
      "name": "ARM",
      "label": "Description of Planned Arm"
    },
    {
      "dataType": "string",
      "length": 6,
      "itemOID": "ACTARMCD",
      "name": "ACTARMCD",
      "label": "Actual Arm Code"
    },
    {
      "dataType": "string",
      "length": 20,
      "itemOID": "ACTARM",
      "name": "ACTARM",
      "label": "Description of Actual Arm"
    },
    {
      "dataType": "string",
      "length": 3,
      "itemOID": "COUNTRY",
      "name": "COUNTRY",
      "label": "Country"
    },
    {
      "dataType": "string",
      "length": 10,
      "itemOID": "DMDTC",
      "name": "DMDTC",
      "label": "Date/Time of Collection"
    },
    {
      "dataType": "float",
      "itemOID": "DMDY",
      "name": "DMDY",
      "label": "Study Day of Collection"
    },
    {
      "dataType": "string",
      "length": 20,
      "itemOID": "TRT01P",
      "name": "TRT01P",
      "label": "Planned Treatment for Period 01"
    },
    {
      "dataType": "string",
      "length": 20,
      "itemOID": "TRT01A",
      "name": "TRT01A",
      "label": "Actual Treatment for Period 01"
    },
    {
      "dataType": "datetime",
      "itemOID": "TRTSDTM",
      "name": "TRTSDTM",
      "label": "Datetime of First Exposure to Treatment",
      "targetDataType": "integer"
    },
    {
      "dataType": "string",
      "length": 1,
      "itemOID": "TRTSTMF",
      "name": "TRTSTMF",
      "label": "Time of First Exposure Imput. Flag"
    },
    {
      "dataType": "datetime",
      "itemOID": "TRTEDTM",
      "name": "TRTEDTM",
      "label": "Datetime of Last Exposure to Treatment",
      "targetDataType": "integer"
    },
    {
      "dataType": "string",
      "length": 1,
      "itemOID": "TRTETMF",
      "name": "TRTETMF",
      "label": "Time of Last Exposure Imput. Flag"
    },
    {
      "dataType": "float",
      "itemOID": "TRTDURD",
      "name": "TRTDURD",
      "label": "Total Treatment Duration (Days)"
    },
    {
      "dataType": "date",
      "itemOID": "SCRFDT",
      "name": "SCRFDT",
      "label": "Screen Failure Date",
      "targetDataType": "integer"
    },
    {
      "dataType": "string",
      "length": 12,
      "itemOID": "EOSSTT",
      "name": "EOSSTT",
      "label": "End of Study Status"
    },
    {
      "dataType": "date",
      "itemOID": "FRVDT",
      "name": "FRVDT",
      "label": "Final Retrieval Visit Date",
      "targetDataType": "integer"
    },
    {
      "dataType": "date",
      "itemOID": "RANDDT",
      "name": "RANDDT",
      "label": "Date of Randomization",
      "targetDataType": "integer"
    },
    {
      "dataType": "string",
      "itemOID": "DTHDTF",
      "name": "DTHDTF",
      "label": "Date of Death Imputation Flag"
    },
    {
      "dataType": "float",
      "itemOID": "DTHADY",
      "name": "DTHADY",
      "label": "Relative Day of Death"
    },
    {
      "dataType": "float",
      "itemOID": "LDDTHELD",
      "name": "LDDTHELD",
      "label": "Elapsed Days from Last Dose to Death"
    },
    {
      "dataType": "string",
      "itemOID": "DTHCAUS",
      "name": "DTHCAUS",
      "label": "Cause of Death"
    },
    {
      "dataType": "string",
      "itemOID": "DTHDOM",
      "name": "DTHDOM",
      "label": "Domain for Date of Death Collection"
    },
    {
      "dataType": "string",
      "itemOID": "DTHCGR1",
      "name": "DTHCGR1",
      "label": "Cause of Death Reason 1"
    },
    {
      "dataType": "date",
      "itemOID": "LSTALVDT",
      "name": "LSTALVDT",
      "label": "Date Last Known Alive",
      "targetDataType": "integer"
    },
    {
      "dataType": "string",
      "length": 1,
      "itemOID": "SAFFL",
      "name": "SAFFL",
      "label": "Safety Population Flag"
    },
    {
      "dataType": "string",
      "length": 9,
      "itemOID": "RACEGR1",
      "name": "RACEGR1",
      "label": "Pooled Race Group 1"
    },
    {
      "dataType": "string",
      "length": 5,
      "itemOID": "AGEGR1",
      "name": "AGEGR1",
      "label": "Pooled Age Group 1"
    },
    {
      "dataType": "string",
      "length": 2,
      "itemOID": "REGION1",
      "name": "REGION1",
      "label": "Geographic Region 1"
    },
    {
      "dataType": "string",
      "itemOID": "LDDTHGR1",
      "name": "LDDTHGR1",
      "label": "Last Dose to Death - Days Elapsed Grp 1"
    },
    {
      "dataType": "string",
      "itemOID": "DTH30FL",
      "name": "DTH30FL",
      "label": "Death Within 30 Days of Last Trt Flag"
    },
    {
      "dataType": "string",
      "itemOID": "DTHA30FL",
      "name": "DTHA30FL",
      "label": "Death After 30 Days from Last Trt Flag"
    },
    {
      "dataType": "string",
      "itemOID": "DTHB30FL",
      "name": "DTHB30FL",
      "label": "Death Within 30 Days of First Trt Flag"
    }
  ],
  "rows": [
    [
      "CDISCPILOT01",
      "AE",
      "01-701-1015",
      1.0,
      "E07",
      "APPLICATION SITE ERYTHEMA",
      "APPLICATION SITE REDNESS",
      null,
      "APPLICATION SITE ERYTHEMA",
      null,
      "HLT_0617",
      null,
      "HLGT_0152",
      null,
      "GENERAL DISORDERS AND ADMINISTRATION SITE CONDITIONS",
      null,
      "GENERAL DISORDERS AND ADMINISTRATION SITE CONDITIONS",
      null,
      "MILD",
      "N",
      null,
      "PROBABLE",
      "NOT RECOVERED/NOT RESOLVED",
      "N",
      "N",
      "N",
      "N",
      "N",
      "N",
      "N",
      "2014-01-16",
      "2014-01-03",
      null,
      2.0,
      null,
      "2014-01-02",
      "2014-07-02",
      null,
      "2014-07-02",
      "2014-01-03T00:00:00",
      null,
      "H",
      null,
      null,
      null,
      "2014-01-03",
      null,
      2.0,
      null,
      null,
      null,
      "2014-01-03T00:00:00",
      0.0,
      "mg",
      "MILD",
      "PROBABLE",
      "Y",
      1,
      "Y",
      "1015",
      "2014-01-02",
      "2014-07-02",
      "2014-01-02",
      "2014-07-02",
      null,
      "2014-07-02T11:45",
      null,
      null,
      "701",
      63.0,
      "YEARS",
      "F",
      "WHITE",
      "HISPANIC OR LATINO",
      "Pbo",
      "Placebo",
      "Pbo",
      "Placebo",
      "USA",
      "2013-12-26",
      -7.0,
      "Placebo",
      "Placebo",
      "2014-01-02T00:00:00",
      "H",
      "2014-07-02T23:59:59",
      "H",
      182.0,
      null,
      "COMPLETED",
      null,
      "2014-01-02",
      null,
      null,
      null,
      null,
      null,
      null,
      "2014-07-02",
      "Y",
      "White",
      "18-64",
      "NA",
      null,
      null,
      null,
      null
    ],
    [
      "CDISCPILOT01",
      "AE",
      "01-701-1015",
      2.0,
      "E08",
      "APPLICATION SITE PRURITUS",
      "APPLICATION SITE ITCHING",
      null,
      "APPLICATION SITE PRURITUS",
      null,
      "HLT_0317",
      null,
      "HLGT_0338",
      null,
      "GENERAL DISORDERS AND ADMINISTRATION SITE CONDITIONS",
      null,
      "GENERAL DISORDERS AND ADMINISTRATION SITE CONDITIONS",
      null,
      "MILD",
      "N",
      null,
      "PROBABLE",
      "NOT RECOVERED/NOT RESOLVED",
      "N",
      "N",
      "N",
      "N",
      "N",
      "N",
      "N",
      "2014-01-16",
      "2014-01-03",
      null,
      2.0,
      null,
      "2014-01-02",
      "2014-07-02",
      null,
      "2014-07-02",
      "2014-01-03T00:00:00",
      null,
      "H",
      null,
      null,
      null,
      "2014-01-03",
      null,
      2.0,
      null,
      null,
      null,
      "2014-01-03T00:00:00",
      0.0,
      "mg",
      "MILD",
      "PROBABLE",
      "Y",
      1,
      null,
      "1015",
      "2014-01-02",
      "2014-07-02",
      "2014-01-02",
      "2014-07-02",
      null,
      "2014-07-02T11:45",
      null,
      null,
      "701",
      63.0,
      "YEARS",
      "F",
      "WHITE",
      "HISPANIC OR LATINO",
      "Pbo",
      "Placebo",
      "Pbo",
      "Placebo",
      "USA",
      "2013-12-26",
      -7.0,
      "Placebo",
      "Placebo",
      "2014-01-02T00:00:00",
      "H",
      "2014-07-02T23:59:59",
      "H",
      182.0,
      null,
      "COMPLETED",
      null,
      "2014-01-02",
      null,
      null,
      null,
      null,
      null,
      null,
      "2014-07-02",
      "Y",
      "White",
      "18-64",
      "NA",
      null,
      null,
      null,
      null
    ],
    [
      "CDISCPILOT01",
      "AE",
      "01-701-1015",
      3.0,
      "E06",
      "DIARRHOEA",
      "DIARRHEA",
      null,
      "DIARRHOEA",
      null,
      "HLT_0148",
      null,
      "HLGT_0588",
      null,
      "GASTROINTESTINAL DISORDERS",
      null,
      "GASTROINTESTINAL DISORDERS",
      null,
      "MILD",
      "N",
      null,
      "REMOTE",
      "RECOVERED/RESOLVED",
      "N",
      "N",
      "N",
      "N",
      "N",
      "N",
      "N",
      "2014-01-16",
      "2014-01-09",
      "2014-01-11",
      8.0,
      10.0,
      "2014-01-02",
      "2014-07-02",
      null,
      "2014-07-02",
      "2014-01-09T00:00:00",
      null,
      "H",
      "2014-01-11T23:59:59",
      null,
      "H",
      "2014-01-09",
      "2014-01-11",
      8.0,
      10.0,
      3.0,
      "days",
      "2014-01-09T00:00:00",
      0.0,
      "mg",
      "MILD",
      "REMOTE",
      "Y",
      1,
      null,
      "1015",
      "2014-01-02",
      "2014-07-02",
      "2014-01-02",
      "2014-07-02",
      null,
      "2014-07-02T11:45",
      null,
      null,
      "701",
      63.0,
      "YEARS",
      "F",
      "WHITE",
      "HISPANIC OR LATINO",
      "Pbo",
      "Placebo",
      "Pbo",
      "Placebo",
      "USA",
      "2013-12-26",
      -7.0,
      "Placebo",
      "Placebo",
      "2014-01-02T00:00:00",
      "H",
      "2014-07-02T23:59:59",
      "H",
      182.0,
      null,
      "COMPLETED",
      null,
      "2014-01-02",
      null,
      null,
      null,
      null,
      null,
      null,
      "2014-07-02",
      "Y",
      "White",
      "18-64",
      "NA",
      null,
      null,
      null,
      null
    ],
    [
      "CDISCPILOT01",
      "AE",
      "01-701-1023",
      2.0,
      "E09",
      "ERYTHEMA",
      "LOCALIZED ERYTHEMA",
      null,
      "ERYTHEMA",
      null,
      "HLT_0284",
      null,
      "HLGT_0192",
      null,
      "SKIN AND SUBCUTANEOUS TISSUE DISORDERS",
      null,
      "SKIN AND SUBCUTANEOUS TISSUE DISORDERS",
      null,
      "MODERATE",
      "N",
      null,
      "PROBABLE",
      "NOT RECOVERED/NOT RESOLVED",
      "N",
      "N",
      "N",
      "N",
      "N",
      "N",
      "N",
      "2012-08-27",
      "2012-08-07",
      null,
      3.0,
      null,
      "2012-08-05",
      "2012-09-01",
      null,
      "2012-09-02",
      "2012-08-07T00:00:00",
      null,
      "H",
      null,
      null,
      null,
      "2012-08-07",
      null,
      3.0,
      null,
      null,
      null,
      "2012-08-07T00:00:00",
      0.0,
      "mg",
      "MODERATE",
      "PROBABLE",
      "Y",
      2,
      "Y",
      "1023",
      "2012-08-05",
      "2012-09-02",
      "2012-08-05",
      "2012-09-01",
      null,
      "2013-02-18",
      null,
      null,
      "701",
      64.0,
      "YEARS",
      "M",
      "WHITE",
      "HISPANIC OR LATINO",
      "Pbo",
      "Placebo",
      "Pbo",
      "Placebo",
      "USA",
      "2012-07-22",
      -14.0,
      "Placebo",
      "Placebo",
      "2012-08-05T00:00:00",
      "H",
      "2012-09-01T23:59:59",
      "H",
      28.0,
      null,
      "DISCONTINUED",
      "2013-02-18",
      "2012-08-05",
      null,
      null,
      null,
      null,
      null,
      null,
      "2012-09-02",
      "Y",
      "White",
      "18-64",
      "NA",
      null,
      null,
      null,
      null
    ],
    [
      "CDISCPILOT01",
      "AE",
      "01-701-1023",
      1.0,
      "E08",
      "ERYTHEMA",
      "ERYTHEMA",
      null,
      "ERYTHEMA",
      null,
      "HLT_0284",
      null,
      "HLGT_0192",
      null,
      "SKIN AND SUBCUTANEOUS TISSUE DISORDERS",
      null,
      "SKIN AND SUBCUTANEOUS TISSUE DISORDERS",
      null,
      "MILD",
      "N",
      null,
      "POSSIBLE",
      "NOT RECOVERED/NOT RESOLVED",
      "N",
      "N",
      "N",
      "N",
      "N",
      "N",
      "N",
      "2012-08-27",
      "2012-08-07",
      "2012-08-30",
      3.0,
      26.0,
      "2012-08-05",
      "2012-09-01",
      null,
      "2012-09-02",
      "2012-08-07T00:00:00",
      null,
      "H",
      "2012-08-30T23:59:59",
      null,
      "H",
      "2012-08-07",
      "2012-08-30",
      3.0,
      26.0,
      24.0,
      "days",
      "2012-08-07T00:00:00",
      0.0,
      "mg",
      "MILD",
      "POSSIBLE",
      "Y",
      1,
      null,
      "1023",
      "2012-08-05",
      "2012-09-02",
      "2012-08-05",
      "2012-09-01",
      null,
      "2013-02-18",
      null,
      null,
      "701",
      64.0,
      "YEARS",
      "M",
      "WHITE",
      "HISPANIC OR LATINO",
      "Pbo",
      "Placebo",
      "Pbo",
      "Placebo",
      "USA",
      "2012-07-22",
      -14.0,
      "Placebo",
      "Placebo",
      "2012-08-05T00:00:00",
      "H",
      "2012-09-01T23:59:59",
      "H",
      28.0,
      null,
      "DISCONTINUED",
      "2013-02-18",
      "2012-08-05",
      null,
      null,
      null,
      null,
      null,
      null,
      "2012-09-02",
      "Y",
      "White",
      "18-64",
      "NA",
      null,
      null,
      null,
      null
    ],
    [
      "CDISCPILOT01",
      "AE",
      "01-701-1023",
      4.0,
      "E08",
      "ERYTHEMA",
      "ERYTHEMA",
      null,
      "ERYTHEMA",
      null,
      "HLT_0284",
      null,
      "HLGT_0192",
      null,
      "SKIN AND SUBCUTANEOUS TISSUE DISORDERS",
      null,
      "SKIN AND SUBCUTANEOUS TISSUE DISORDERS",
      null,
      "MILD",
      "N",
      null,
      "POSSIBLE",
      "RECOVERED/RESOLVED",
      "N",
      "N",
      "N",
      "N",
      "N",
      "N",
      "N",
      "2012-09-02",
      "2012-08-07",
      "2012-08-30",
      3.0,
      26.0,
      "2012-08-05",
      "2012-09-01",
      null,
      "2012-09-02",
      "2012-08-07T00:00:00",
      null,
      "H",
      "2012-08-30T23:59:59",
      null,
      "H",
      "2012-08-07",
      "2012-08-30",
      3.0,
      26.0,
      24.0,
      "days",
      "2012-08-07T00:00:00",
      0.0,
      "mg",
      "MILD",
      "POSSIBLE",
      "Y",
      1,
      null,
      "1023",
      "2012-08-05",
      "2012-09-02",
      "2012-08-05",
      "2012-09-01",
      null,
      "2013-02-18",
      null,
      null,
      "701",
      64.0,
      "YEARS",
      "M",
      "WHITE",
      "HISPANIC OR LATINO",
      "Pbo",
      "Placebo",
      "Pbo",
      "Placebo",
      "USA",
      "2012-07-22",
      -14.0,
      "Placebo",
      "Placebo",
      "2012-08-05T00:00:00",
      "H",
      "2012-09-01T23:59:59",
      "H",
      28.0,
      null,
      "DISCONTINUED",
      "2013-02-18",
      "2012-08-05",
      null,
      null,
      null,
      null,
      null,
      null,
      "2012-09-02",
      "Y",
      "White",
      "18-64",
      "NA",
      null,
      null,
      null,
      null
    ],
    [
      "CDISCPILOT01",
      "AE",
      "01-701-1023",
      3.0,
      "E10",
      "ATRIOVENTRICULAR BLOCK SECOND DEGREE",
      "AV BLOCK SECOND DEGREE",
      null,
      "ATRIOVENTRICULAR BLOCK SECOND DEGREE",
      null,
      "HLT_0415",
      null,
      "HLGT_0086",
      null,
      "CARDIAC DISORDERS",
      null,
      "CARDIAC DISORDERS",
      null,
      "MILD",
      "N",
      null,
      "POSSIBLE",
      "NOT RECOVERED/NOT RESOLVED",
      "N",
      "N",
      "N",
      "N",
      "N",
      "N",
      "N",
      "2012-08-27",
      "2012-08-26",
      null,
      22.0,
      null,
      "2012-08-05",
      "2012-09-01",
      null,
      "2012-09-02",
      "2012-08-26T00:00:00",
      null,
      "H",
      null,
      null,
      null,
      "2012-08-26",
      null,
      22.0,
      null,
      null,
      null,
      "2012-08-26T00:00:00",
      0.0,
      "mg",
      "MILD",
      "POSSIBLE",
      "Y",
      1,
      null,
      "1023",
      "2012-08-05",
      "2012-09-02",
      "2012-08-05",
      "2012-09-01",
      null,
      "2013-02-18",
      null,
      null,
      "701",
      64.0,
      "YEARS",
      "M",
      "WHITE",
      "HISPANIC OR LATINO",
      "Pbo",
      "Placebo",
      "Pbo",
      "Placebo",
      "USA",
      "2012-07-22",
      -14.0,
      "Placebo",
      "Placebo",
      "2012-08-05T00:00:00",
      "H",
      "2012-09-01T23:59:59",
      "H",
      28.0,
      null,
      "DISCONTINUED",
      "2013-02-18",
      "2012-08-05",
      null,
      null,
      null,
      null,
      null,
      null,
      "2012-09-02",
      "Y",
      "White",
      "18-64",
      "NA",
      null,
      null,
      null,
      null
    ],
    [
      "CDISCPILOT01",
      "AE",
      "01-701-1028",
      1.0,
      "E04",
      "APPLICATION SITE ERYTHEMA",
      "APPLICATION SITE ERYTHEMA",
      null,
      "APPLICATION SITE ERYTHEMA",
      null,
      "HLT_0617",
      null,
      "HLGT_0152",
      null,
      "GENERAL DISORDERS AND ADMINISTRATION SITE CONDITIONS",
      null,
      "GENERAL DISORDERS AND ADMINISTRATION SITE CONDITIONS",
      null,
      "MILD",
      "N",
      null,
      "POSSIBLE",
      "NOT RECOVERED/NOT RESOLVED",
      "N",
      "N",
      "N",
      "N",
      "N",
      "N",
      "N",
      "2013-08-01",
      "2013-07-21",
      null,
      3.0,
      null,
      "2013-07-19",
      "2014-01-14",
      null,
      "2014-01-14",
      "2013-07-21T00:00:00",
      null,
      "H",
      null,
      null,
      null,
      "2013-07-21",
      null,
      3.0,
      null,
      null,
      null,
      "2013-07-21T00:00:00",
      54.0,
      "mg",
      "MILD",
      "POSSIBLE",
      "Y",
      1,
      "Y",
      "1028",
      "2013-07-19",
      "2014-01-14",
      "2013-07-19",
      "2014-01-14",
      null,
      "2014-01-14T11:10",
      null,
      null,
      "701",
      71.0,
      "YEARS",
      "M",
      "WHITE",
      "NOT HISPANIC OR LATINO",
      "Xan_Hi",
      "Xanomeline High Dose",
      "Xan_Hi",
      "Xanomeline High Dose",
      "USA",
      "2013-07-11",
      -8.0,
      "Xanomeline High Dose",
      "Xanomeline High Dose",
      "2013-07-19T00:00:00",
      "H",
      "2014-01-14T23:59:59",
      "H",
      180.0,
      null,
      "COMPLETED",
      null,
      "2013-07-19",
      null,
      null,
      null,
      null,
      null,
      null,
      "2014-01-14",
      "Y",
      "White",
      ">64",
      "NA",
      null,
      null,
      null,
      null
    ],
    [
      "CDISCPILOT01",
      "AE",
      "01-701-1028",
      2.0,
      "E05",
      "APPLICATION SITE PRURITUS",
      "APPLICATION SITE ITCHING",
      null,
      "APPLICATION SITE PRURITUS",
      null,
      "HLT_0317",
      null,
      "HLGT_0338",
      null,
      "GENERAL DISORDERS AND ADMINISTRATION SITE CONDITIONS",
      null,
      "GENERAL DISORDERS AND ADMINISTRATION SITE CONDITIONS",
      null,
      "MILD",
      "N",
      null,
      "PROBABLE",
      "NOT RECOVERED/NOT RESOLVED",
      "N",
      "N",
      "N",
      "N",
      "N",
      "N",
      "N",
      "2013-08-14",
      "2013-08-08",
      null,
      21.0,
      null,
      "2013-07-19",
      "2014-01-14",
      null,
      "2014-01-14",
      "2013-08-08T00:00:00",
      null,
      "H",
      null,
      null,
      null,
      "2013-08-08",
      null,
      21.0,
      null,
      null,
      null,
      "2013-08-01T00:00:00",
      null,
      null,
      "MILD",
      "PROBABLE",
      "Y",
      1,
      null,
      "1028",
      "2013-07-19",
      "2014-01-14",
      "2013-07-19",
      "2014-01-14",
      null,
      "2014-01-14T11:10",
      null,
      null,
      "701",
      71.0,
      "YEARS",
      "M",
      "WHITE",
      "NOT HISPANIC OR LATINO",
      "Xan_Hi",
      "Xanomeline High Dose",
      "Xan_Hi",
      "Xanomeline High Dose",
      "USA",
      "2013-07-11",
      -8.0,
      "Xanomeline High Dose",
      "Xanomeline High Dose",
      "2013-07-19T00:00:00",
      "H",
      "2014-01-14T23:59:59",
      "H",
      180.0,
      null,
      "COMPLETED",
      null,
      "2013-07-19",
      null,
      null,
      null,
      null,
      null,
      null,
      "2014-01-14",
      "Y",
      "White",
      ">64",
      "NA",
      null,
      null,
      null,
      null
    ],
    [
      "CDISCPILOT01",
      "AE",
      "01-701-1034",
      1.0,
      "E08",
      "APPLICATION SITE PRURITUS",
      "APPLICATION SITE ITCHING",
      null,
      "APPLICATION SITE PRURITUS",
      null,
      "HLT_0317",
      null,
      "HLGT_0338",
      null,
      "GENERAL DISORDERS AND ADMINISTRATION SITE CONDITIONS",
      null,
      "GENERAL DISORDERS AND ADMINISTRATION SITE CONDITIONS",
      null,
      "MILD",
      "N",
      null,
      "PROBABLE",
      "NOT RECOVERED/NOT RESOLVED",
      "N",
      "N",
      "N",
      "N",
      "N",
      "N",
      "N",
      "2014-09-25",
      "2014-08-27",
      null,
      58.0,
      null,
      "2014-07-01",
      "2014-12-30",
      null,
      "2014-12-30",
      "2014-08-27T00:00:00",
      null,
      "H",
      null,
      null,
      null,
      "2014-08-27",
      null,
      58.0,
      null,
      null,
      null,
      "2014-07-15T00:00:00",
      null,
      null,
      "MILD",
      "PROBABLE",
      "Y",
      1,
      "Y",
      "1034",
      "2014-07-01",
      "2014-12-30",
      "2014-07-01",
      "2014-12-30",
      null,
      "2014-12-30T09:50",
      null,
      null,
      "701",
      77.0,
      "YEARS",
      "F",
      "WHITE",
      "NOT HISPANIC OR LATINO",
      "Xan_Hi",
      "Xanomeline High Dose",
      "Xan_Hi",
      "Xanomeline High Dose",
      "USA",
      "2014-06-24",
      -7.0,
      "Xanomeline High Dose",
      "Xanomeline High Dose",
      "2014-07-01T00:00:00",
      "H",
      "2014-12-30T23:59:59",
      "H",
      183.0,
      null,
      "COMPLETED",
      null,
      "2014-07-01",
      null,
      null,
      null,
      null,
      null,
      null,
      "2014-12-30",
      "Y",
      "White",
      ">64",
      "NA",
      null,
      null,
      null,
      null
    ],
    [
      "CDISCPILOT01",
      "AE",
      "01-701-1034",
      2.0,
      "E07",
      "FATIGUE",
      "FATIGUE",
      null,
      "FATIGUE",
      null,
      "HLT_0043",
      null,
      "HLGT_0181",
      null,
      "GENERAL DISORDERS AND ADMINISTRATION SITE CONDITIONS",
      null,
      "GENERAL DISORDERS AND ADMINISTRATION SITE CONDITIONS",
      null,
      "MILD",
      "N",
      null,
      "POSSIBLE",
      "NOT RECOVERED/NOT RESOLVED",
      "N",
      "N",
      "N",
      "N",
      "N",
      "N",
      "N",
      "2014-11-18",
      "2014-11-02",
      null,
      125.0,
      null,
      "2014-07-01",
      "2014-12-30",
      null,
      "2014-12-30",
      "2014-11-02T00:00:00",
      null,
      "H",
      null,
      null,
      null,
      "2014-11-02",
      null,
      125.0,
      null,
      null,
      null,
      "2014-07-15T00:00:00",
      null,
      null,
      "MILD",
      "POSSIBLE",
      "Y",
      1,
      null,
      "1034",
      "2014-07-01",
      "2014-12-30",
      "2014-07-01",
      "2014-12-30",
      null,
      "2014-12-30T09:50",
      null,
      null,
      "701",
      77.0,
      "YEARS",
      "F",
      "WHITE",
      "NOT HISPANIC OR LATINO",
      "Xan_Hi",
      "Xanomeline High Dose",
      "Xan_Hi",
      "Xanomeline High Dose",
      "USA",
      "2014-06-24",
      -7.0,
      "Xanomeline High Dose",
      "Xanomeline High Dose",
      "2014-07-01T00:00:00",
      "H",
      "2014-12-30T23:59:59",
      "H",
      183.0,
      null,
      "COMPLETED",
      null,
      "2014-07-01",
      null,
      null,
      null,
      null,
      null,
      null,
      "2014-12-30",
      "Y",
      "White",
      ">64",
      "NA",
      null,
      null,
      null,
      null
    ],
    [
      "CDISCPILOT01",
      "AE",
      "01-701-1047",
      1.0,
      "E06",
      "HIATUS HERNIA",
      "HERNIA HIATAL",
      null,
      "HIATUS HERNIA",
      null,
      "HLT_0159",
      null,
      "HLGT_0109",
      null,
      "GASTROINTESTINAL DISORDERS",
      null,
      "GASTROINTESTINAL DISORDERS",
      null,
      "MODERATE",
      "N",
      null,
      "NONE",
      "NOT RECOVERED/NOT RESOLVED",
      "N",
      "N",
      "N",
      "N",
      "N",
      "N",
      "N",
      "2013-02-12",
      "2013-02-12",
      "2013-02-12",
      1.0,
      1.0,
      "2013-02-12",
      "2013-03-09",
      null,
      "2013-03-29",
      "2013-02-12T00:00:00",
      null,
      "H",
      "2013-02-12T23:59:59",
      null,
      "H",
      "2013-02-12",
      "2013-02-12",
      1.0,
      1.0,
      1.0,
      "days",
      "2013-02-12T00:00:00",
      0.0,
      "mg",
      "MODERATE",
      "NONE",
      "Y",
      2,
      "Y",
      "1047",
      "2013-02-12",
      "2013-03-29",
      "2013-02-12",
      "2013-03-09",
      null,
      "2013-07-28",
      null,
      null,
      "701",
      85.0,
      "YEARS",
      "F",
      "WHITE",
      "NOT HISPANIC OR LATINO",
      "Pbo",
      "Placebo",
      "Pbo",
      "Placebo",
      "USA",
      "2013-01-22",
      -21.0,
      "Placebo",
      "Placebo",
      "2013-02-12T00:00:00",
      "H",
      "2013-03-09T23:59:59",
      "H",
      26.0,
      null,
      "DISCONTINUED",
      "2013-07-28",
      "2013-02-12",
      null,
      null,
      null,
      null,
      null,
      null,
      "2013-04-07",
      "Y",
      "White",
      ">64",
      "NA",
      null,
      null,
      null,
      null
    ],
    [
      "CDISCPILOT01",
      "AE",
      "01-701-1047",
      2.0,
      "E06",
      "HIATUS HERNIA",
      "HERNIA HIATAL",
      null,
      "HIATUS HERNIA",
      null,
      "HLT_0159",
      null,
      "HLGT_0109",
      null,
      "GASTROINTESTINAL DISORDERS",
      null,
      "GASTROINTESTINAL DISORDERS",
      null,
      "MODERATE",
      "N",
      null,
      "NONE",
      "RECOVERED/RESOLVED",
      "N",
      "N",
      "N",
      "N",
      "N",
      "N",
      "N",
      "2013-02-25",
      "2013-02-12",
      "2013-02-12",
      1.0,
      1.0,
      "2013-02-12",
      "2013-03-09",
      null,
      "2013-03-29",
      "2013-02-12T00:00:00",
      null,
      "H",
      "2013-02-12T23:59:59",
      null,
      "H",
      "2013-02-12",
      "2013-02-12",
      1.0,
      1.0,
      1.0,
      "days",
      "2013-02-12T00:00:00",
      0.0,
      "mg",
      "MODERATE",
      "NONE",
      "Y",
      2,
      null,
      "1047",
      "2013-02-12",
      "2013-03-29",
      "2013-02-12",
      "2013-03-09",
      null,
      "2013-07-28",
      null,
      null,
      "701",
      85.0,
      "YEARS",
      "F",
      "WHITE",
      "NOT HISPANIC OR LATINO",
      "Pbo",
      "Placebo",
      "Pbo",
      "Placebo",
      "USA",
      "2013-01-22",
      -21.0,
      "Placebo",
      "Placebo",
      "2013-02-12T00:00:00",
      "H",
      "2013-03-09T23:59:59",
      "H",
      26.0,
      null,
      "DISCONTINUED",
      "2013-07-28",
      "2013-02-12",
      null,
      null,
      null,
      null,
      null,
      null,
      "2013-04-07",
      "Y",
      "White",
      ">64",
      "NA",
      null,
      null,
      null,
      null
    ],
    [
      "CDISCPILOT01",
      "AE",
      "01-701-1047",
      3.0,
      "E08",
      "UPPER RESPIRATORY TRACT INFECTION",
      "UPPER RESPIRATORY INFECTION",
      null,
      "UPPER RESPIRATORY TRACT INFECTION",
      null,
      "HLT_0520",
      null,
      "HLGT_0489",
      null,
      "INFECTIONS AND INFESTATIONS",
      null,
      "INFECTIONS AND INFESTATIONS",
      null,
      "MILD",
      "N",
      null,
      "NONE",
      "NOT RECOVERED/NOT RESOLVED",
      "N",
      "N",
      "N",
      "N",
      "N",
      "N",
      "N",
      "2013-03-10",
      "2013-03-06",
      null,
      23.0,
      null,
      "2013-02-12",
      "2013-03-09",
      null,
      "2013-03-29",
      "2013-03-06T00:00:00",
      null,
      "H",
      null,
      null,
      null,
      "2013-03-06",
      null,
      23.0,
      null,
      null,
      null,
      "2013-03-06T00:00:00",
      0.0,
      "mg",
      "MILD",
      "NONE",
      "Y",
      1,
      null,
      "1047",
      "2013-02-12",
      "2013-03-29",
      "2013-02-12",
      "2013-03-09",
      null,
      "2013-07-28",
      null,
      null,
      "701",
      85.0,
      "YEARS",
      "F",
      "WHITE",
      "NOT HISPANIC OR LATINO",
      "Pbo",
      "Placebo",
      "Pbo",
      "Placebo",
      "USA",
      "2013-01-22",
      -21.0,
      "Placebo",
      "Placebo",
      "2013-02-12T00:00:00",
      "H",
      "2013-03-09T23:59:59",
      "H",
      26.0,
      null,
      "DISCONTINUED",
      "2013-07-28",
      "2013-02-12",
      null,
      null,
      null,
      null,
      null,
      null,
      "2013-04-07",
      "Y",
      "White",
      ">64",
      "NA",
      null,
      null,
      null,
      null
    ],
    [
      "CDISCPILOT01",
      "AE",
      "01-701-1047",
      4.0,
      "E09",
      "BUNDLE BRANCH BLOCK LEFT",
      "LEFT BUNDLE BRANCH BLOCK",
      null,
      "BUNDLE BRANCH BLOCK LEFT",
      null,
      "HLT_0281",
      null,
      "HLGT_0721",
      null,
      "CARDIAC DISORDERS",
      null,
      "CARDIAC DISORDERS",
      null,
      "MILD",
      "N",
      null,
      "NONE",
      "NOT RECOVERED/NOT RESOLVED",
      "N",
      "N",
      "N",
      "N",
      "N",
      "N",
      "N",
      "2013-03-10",
      "2013-03-10",
      null,
      27.0,
      null,
      "2013-02-12",
      "2013-03-09",
      null,
      "2013-03-29",
      "2013-03-10T00:00:00",
      null,
      "H",
      null,
      null,
      null,
      "2013-03-10",
      null,
      27.0,
      null,
      null,
      null,
      "2013-03-09T00:00:00",
      null,
      null,
      "MILD",
      "NONE",
      "Y",
      1,
      null,
      "1047",
      "2013-02-12",
      "2013-03-29",
      "2013-02-12",
      "2013-03-09",
      null,
      "2013-07-28",
      null,
      null,
      "701",
      85.0,
      "YEARS",
      "F",
      "WHITE",
      "NOT HISPANIC OR LATINO",
      "Pbo",
      "Placebo",
      "Pbo",
      "Placebo",
      "USA",
      "2013-01-22",
      -21.0,
      "Placebo",
      "Placebo",
      "2013-02-12T00:00:00",
      "H",
      "2013-03-09T23:59:59",
      "H",
      26.0,
      null,
      "DISCONTINUED",
      "2013-07-28",
      "2013-02-12",
      null,
      null,
      null,
      null,
      null,
      null,
      "2013-04-07",
      "Y",
      "White",
      ">64",
      "NA",
      null,
      null,
      null,
      null
    ],
    [
      "CDISCPILOT01",
      "AE",
      "01-701-1097",
      2.0,
      "E05",
      "PRURITUS GENERALISED",
      "GENERALIZED PRURITUS",
      null,
      "PRURITUS GENERALISED",
      null,
      "HLT_0123",
      null,
      "HLGT_0689",
      null,
      "SKIN AND SUBCUTANEOUS TISSUE DISORDERS",
      null,
      "SKIN AND SUBCUTANEOUS TISSUE DISORDERS",
      null,
      "MODERATE",
      "N",
      null,
      "POSSIBLE",
      "RECOVERED/RESOLVED",
      "N",
      "N",
      "N",
      "N",
      "N",
      "N",
      "N",
      "2014-02-26",
      "2014-02-20",
      "2014-02-20",
      51.0,
      51.0,
      "2014-01-01",
      "2014-07-09",
      null,
      "2014-07-09",
      "2014-02-20T00:00:00",
      null,
      "H",
      "2014-02-20T23:59:59",
      null,
      "H",
      "2014-02-20",
      "2014-02-20",
      51.0,
      51.0,
      1.0,
      "days",
      "2014-02-20T00:00:00",
      54.0,
      "mg",
      "MODERATE",
      "POSSIBLE",
      "Y",
      2,
      "Y",
      "1097",
      "2014-01-01",
      "2014-07-09",
      "2014-01-01",
      "2014-07-09",
      null,
      "2014-07-09T09:39",
      null,
      null,
      "701",
      68.0,
      "YEARS",
      "M",
      "WHITE",
      "NOT HISPANIC OR LATINO",
      "Xan_Lo",
      "Xanomeline Low Dose",
      "Xan_Lo",
      "Xanomeline Low Dose",
      "USA",
      "2013-12-23",
      -9.0,
      "Xanomeline Low Dose",
      "Xanomeline Low Dose",
      "2014-01-01T00:00:00",
      "H",
      "2014-07-09T23:59:59",
      "H",
      190.0,
      null,
      "COMPLETED",
      null,
      "2014-01-01",
      null,
      null,
      null,
      null,
      null,
      null,
      "2014-07-09",
      "Y",
      "White",
      ">64",
      "NA",
      null,
      null,
      null,
      null
    ],
    [
      "CDISCPILOT01",
      "AE",
      "01-701-1097",
      10.0,
      "E06",
      "APPLICATION SITE PRURITUS",
      "APPLICATION SITE ITCHING",
      null,
      "APPLICATION SITE PRURITUS",
      null,
      "HLT_0317",
      null,
      "HLGT_0338",
      null,
      "GENERAL DISORDERS AND ADMINISTRATION SITE CONDITIONS",
      null,
      "GENERAL DISORDERS AND ADMINISTRATION SITE CONDITIONS",
      null,
      "MODERATE",
      "N",
      null,
      "POSSIBLE",
      "NOT RECOVERED/NOT RESOLVED",
      "N",
      "N",
      "N",
      "N",
      "N",
      "N",
      "N",
      "2014-05-21",
      "2014-02-21",
      null,
      52.0,
      null,
      "2014-01-01",
      "2014-07-09",
      null,
      "2014-07-09",
      "2014-02-21T00:00:00",
      null,
      "H",
      null,
      null,
      null,
      "2014-02-21",
      null,
      52.0,
      null,
      null,
      null,
      "2014-02-21T00:00:00",
      54.0,
      "mg",
      "MODERATE",
      "POSSIBLE",
      "Y",
      2,
      null,
      "1097",
      "2014-01-01",
      "2014-07-09",
      "2014-01-01",
      "2014-07-09",
      null,
      "2014-07-09T09:39",
      null,
      null,
      "701",
      68.0,
      "YEARS",
      "M",
      "WHITE",
      "NOT HISPANIC OR LATINO",
      "Xan_Lo",
      "Xanomeline Low Dose",
      "Xan_Lo",
      "Xanomeline Low Dose",
      "USA",
      "2013-12-23",
      -9.0,
      "Xanomeline Low Dose",
      "Xanomeline Low Dose",
      "2014-01-01T00:00:00",
      "H",
      "2014-07-09T23:59:59",
      "H",
      190.0,
      null,
      "COMPLETED",
      null,
      "2014-01-01",
      null,
      null,
      null,
      null,
      null,
      null,
      "2014-07-09",
      "Y",
      "White",
      ">64",
      "NA",
      null,
      null,
      null,
      null
    ],
    [
      "CDISCPILOT01",
      "AE",
      "01-701-1097",
      5.0,
      "E08",
      "PRURITUS GENERALISED",
      "GENERALIZED PRURITUS",
      null,
      "PRURITUS GENERALISED",
      null,
      "HLT_0123",
      null,
      "HLGT_0689",
      null,
      "SKIN AND SUBCUTANEOUS TISSUE DISORDERS",
      null,
      "SKIN AND SUBCUTANEOUS TISSUE DISORDERS",
      null,
      "MODERATE",
      "N",
      null,
      "POSSIBLE",
      "RECOVERED/RESOLVED",
      "N",
      "N",
      "N",
      "N",
      "N",
      "N",
      "N",
      "2014-03-26",
      "2014-03-21",
      "2014-03-21",
      80.0,
      80.0,
      "2014-01-01",
      "2014-07-09",
      null,
      "2014-07-09",
      "2014-03-21T00:00:00",
      null,
      "H",
      "2014-03-21T23:59:59",
      null,
      "H",
      "2014-03-21",
      "2014-03-21",
      80.0,
      80.0,
      1.0,
      "days",
      "2014-03-21T00:00:00",
      54.0,
      "mg",
      "MODERATE",
      "POSSIBLE",
      "Y",
      2,
      null,
      "1097",
      "2014-01-01",
      "2014-07-09",
      "2014-01-01",
      "2014-07-09",
      null,
      "2014-07-09T09:39",
      null,
      null,
      "701",
      68.0,
      "YEARS",
      "M",
      "WHITE",
      "NOT HISPANIC OR LATINO",
      "Xan_Lo",
      "Xanomeline Low Dose",
      "Xan_Lo",
      "Xanomeline Low Dose",
      "USA",
      "2013-12-23",
      -9.0,
      "Xanomeline Low Dose",
      "Xanomeline Low Dose",
      "2014-01-01T00:00:00",
      "H",
      "2014-07-09T23:59:59",
      "H",
      190.0,
      null,
      "COMPLETED",
      null,
      "2014-01-01",
      null,
      null,
      null,
      null,
      null,
      null,
      "2014-07-09",
      "Y",
      "White",
      ">64",
      "NA",
      null,
      null,
      null,
      null
    ],
    [
      "CDISCPILOT01",
      "AE",
      "01-701-1097",
      6.0,
      "E12",
      "PRURITUS GENERALISED",
      "GENERALIZED PRURITUS",
      null,
      "PRURITUS GENERALISED",
      null,
      "HLT_0123",
      null,
      "HLGT_0689",
      null,
      "SKIN AND SUBCUTANEOUS TISSUE DISORDERS",
      null,
      "SKIN AND SUBCUTANEOUS TISSUE DISORDERS",
      null,
      "MODERATE",
      "N",
      null,
      "POSSIBLE",
      "RECOVERED/RESOLVED",
      "N",
      "N",
      "N",
      "N",
      "N",
      "N",
      "N",
      "2014-04-23",
      "2014-03-31",
      "2014-03-31",
      90.0,
      90.0,
      "2014-01-01",
      "2014-07-09",
      null,
      "2014-07-09",
      "2014-03-31T00:00:00",
      null,
      "H",
      "2014-03-31T23:59:59",
      null,
      "H",
      "2014-03-31",
      "2014-03-31",
      90.0,
      90.0,
      1.0,
      "days",
      "2014-03-31T00:00:00",
      54.0,
      "mg",
      "MODERATE",
      "POSSIBLE",
      "Y",
      2,
      null,
      "1097",
      "2014-01-01",
      "2014-07-09",
      "2014-01-01",
      "2014-07-09",
      null,
      "2014-07-09T09:39",
      null,
      null,
      "701",
      68.0,
      "YEARS",
      "M",
      "WHITE",
      "NOT HISPANIC OR LATINO",
      "Xan_Lo",
      "Xanomeline Low Dose",
      "Xan_Lo",
      "Xanomeline Low Dose",
      "USA",
      "2013-12-23",
      -9.0,
      "Xanomeline Low Dose",
      "Xanomeline Low Dose",
      "2014-01-01T00:00:00",
      "H",
      "2014-07-09T23:59:59",
      "H",
      190.0,
      null,
      "COMPLETED",
      null,
      "2014-01-01",
      null,
      null,
      null,
      null,
      null,
      null,
      "2014-07-09",
      "Y",
      "White",
      ">64",
      "NA",
      null,
      null,
      null,
      null
    ],
    [
      "CDISCPILOT01",
      "AE",
      "01-701-1097",
      7.0,
      "E09",
      "PRURITUS GENERALISED",
      "GENERALIZED PRURITUS",
      null,
      "PRURITUS GENERALISED",
      null,
      "HLT_0123",
      null,
      "HLGT_0689",
      null,
      "SKIN AND SUBCUTANEOUS TISSUE DISORDERS",
      null,
      "SKIN AND SUBCUTANEOUS TISSUE DISORDERS",
      null,
      "MODERATE",
      "N",
      null,
      "POSSIBLE",
      "RECOVERED/RESOLVED",
      "N",
      "N",
      "N",
      "N",
      "N",
      "N",
      "N",
      "2014-04-23",
      "2014-04-19",
      "2014-04-20",
      109.0,
      110.0,
      "2014-01-01",
      "2014-07-09",
      null,
      "2014-07-09",
      "2014-04-19T00:00:00",
      null,
      "H",
      "2014-04-20T23:59:59",
      null,
      "H",
      "2014-04-19",
      "2014-04-20",
      109.0,
      110.0,
      2.0,
      "days",
      "2014-04-19T00:00:00",
      54.0,
      "mg",
      "MODERATE",
      "POSSIBLE",
      "Y",
      2,
      null,
      "1097",
      "2014-01-01",
      "2014-07-09",
      "2014-01-01",
      "2014-07-09",
      null,
      "2014-07-09T09:39",
      null,
      null,
      "701",
      68.0,
      "YEARS",
      "M",
      "WHITE",
      "NOT HISPANIC OR LATINO",
      "Xan_Lo",
      "Xanomeline Low Dose",
      "Xan_Lo",
      "Xanomeline Low Dose",
      "USA",
      "2013-12-23",
      -9.0,
      "Xanomeline Low Dose",
      "Xanomeline Low Dose",
      "2014-01-01T00:00:00",
      "H",
      "2014-07-09T23:59:59",
      "H",
      190.0,
      null,
      "COMPLETED",
      null,
      "2014-01-01",
      null,
      null,
      null,
      null,
      null,
      null,
      "2014-07-09",
      "Y",
      "White",
      ">64",
      "NA",
      null,
      null,
      null,
      null
    ],
    [
      "CDISCPILOT01",
      "AE",
      "01-701-1097",
      1.0,
      "E04",
      "ERYTHEMA",
      "ERYTHEMA",
      null,
      "ERYTHEMA",
      null,
      "HLT_0284",
      null,
      "HLGT_0192",
      null,
      "SKIN AND SUBCUTANEOUS TISSUE DISORDERS",
      null,
      "SKIN AND SUBCUTANEOUS TISSUE DISORDERS",
      null,
      "MILD",
      "N",
      null,
      "POSSIBLE",
      "NOT RECOVERED/NOT RESOLVED",
      "N",
      "N",
      "N",
      "N",
      "N",
      "N",
      "N",
      "2014-01-15",
      "2014-01-03",
      null,
      3.0,
      null,
      "2014-01-01",
      "2014-07-09",
      null,
      "2014-07-09",
      "2014-01-03T00:00:00",
      null,
      "H",
      null,
      null,
      null,
      "2014-01-03",
      null,
      3.0,
      null,
      null,
      null,
      "2014-01-03T00:00:00",
      54.0,
      "mg",
      "MILD",
      "POSSIBLE",
      "Y",
      1,
      null,
      "1097",
      "2014-01-01",
      "2014-07-09",
      "2014-01-01",
      "2014-07-09",
      null,
      "2014-07-09T09:39",
      null,
      null,
      "701",
      68.0,
      "YEARS",
      "M",
      "WHITE",
      "NOT HISPANIC OR LATINO",
      "Xan_Lo",
      "Xanomeline Low Dose",
      "Xan_Lo",
      "Xanomeline Low Dose",
      "USA",
      "2013-12-23",
      -9.0,
      "Xanomeline Low Dose",
      "Xanomeline Low Dose",
      "2014-01-01T00:00:00",
      "H",
      "2014-07-09T23:59:59",
      "H",
      190.0,
      null,
      "COMPLETED",
      null,
      "2014-01-01",
      null,
      null,
      null,
      null,
      null,
      null,
      "2014-07-09",
      "Y",
      "White",
      ">64",
      "NA",
      null,
      null,
      null,
      null
    ],
    [
      "CDISCPILOT01",
      "AE",
      "01-701-1097",
      3.0,
      "E07",
      "APPLICATION SITE VESICLES",
      "APPLICATION SITE BLISTER",
      null,
      "APPLICATION SITE VESICLES",
      null,
      "HLT_0180",
      null,
      "HLGT_0576",
      null,
      "GENERAL DISORDERS AND ADMINISTRATION SITE CONDITIONS",
      null,
      "GENERAL DISORDERS AND ADMINISTRATION SITE CONDITIONS",
      null,
      "MILD",
      "N",
      null,
      "PROBABLE",
      "RECOVERED/RESOLVED",
      "N",
      "N",
      "N",
      "N",
      "N",
      "N",
      "N",
      "2014-02-26",
      "2014-02-20",
      "2014-02-22",
      51.0,
      53.0,
      "2014-01-01",
      "2014-07-09",
      null,
      "2014-07-09",
      "2014-02-20T00:00:00",
      null,
      "H",
      "2014-02-22T23:59:59",
      null,
      "H",
      "2014-02-20",
      "2014-02-22",
      51.0,
      53.0,
      3.0,
      "days",
      "2014-02-20T00:00:00",
      54.0,
      "mg",
      "MILD",
      "PROBABLE",
      "Y",
      1,
      null,
      "1097",
      "2014-01-01",
      "2014-07-09",
      "2014-01-01",
      "2014-07-09",
      null,
      "2014-07-09T09:39",
      null,
      null,
      "701",
      68.0,
      "YEARS",
      "M",
      "WHITE",
      "NOT HISPANIC OR LATINO",
      "Xan_Lo",
      "Xanomeline Low Dose",
      "Xan_Lo",
      "Xanomeline Low Dose",
      "USA",
      "2013-12-23",
      -9.0,
      "Xanomeline Low Dose",
      "Xanomeline Low Dose",
      "2014-01-01T00:00:00",
      "H",
      "2014-07-09T23:59:59",
      "H",
      190.0,
      null,
      "COMPLETED",
      null,
      "2014-01-01",
      null,
      null,
      null,
      null,
      null,
      null,
      "2014-07-09",
      "Y",
      "White",
      ">64",
      "NA",
      null,
      null,
      null,
      null
    ],
    [
      "CDISCPILOT01",
      "AE",
      "01-701-1097",
      4.0,
      "E06",
      "APPLICATION SITE PRURITUS",
      "APPLICATION SITE ITCHING",
      null,
      "APPLICATION SITE PRURITUS",
      null,
      "HLT_0317",
      null,
      "HLGT_0338",
      null,
      "GENERAL DISORDERS AND ADMINISTRATION SITE CONDITIONS",
      null,
      "GENERAL DISORDERS AND ADMINISTRATION SITE CONDITIONS",
      null,
      "MILD",
      "N",
      null,
      "POSSIBLE",
      "NOT RECOVERED/NOT RESOLVED",
      "N",
      "N",
      "N",
      "N",
      "N",
      "N",
      "N",
      "2014-02-26",
      "2014-02-21",
      null,
      52.0,
      null,
      "2014-01-01",
      "2014-07-09",
      null,
      "2014-07-09",
      "2014-02-21T00:00:00",
      null,
      "H",
      null,
      null,
      null,
      "2014-02-21",
      null,
      52.0,
      null,
      null,
      null,
      "2014-02-21T00:00:00",
      54.0,
      "mg",
      "MILD",
      "POSSIBLE",
      "Y",
      1,
      null,
      "1097",
      "2014-01-01",
      "2014-07-09",
      "2014-01-01",
      "2014-07-09",
      null,
      "2014-07-09T09:39",
      null,
      null,
      "701",
      68.0,
      "YEARS",
      "M",
      "WHITE",
      "NOT HISPANIC OR LATINO",
      "Xan_Lo",
      "Xanomeline Low Dose",
      "Xan_Lo",
      "Xanomeline Low Dose",
      "USA",
      "2013-12-23",
      -9.0,
      "Xanomeline Low Dose",
      "Xanomeline Low Dose",
      "2014-01-01T00:00:00",
      "H",
      "2014-07-09T23:59:59",
      "H",
      190.0,
      null,
      "COMPLETED",
      null,
      "2014-01-01",
      null,
      null,
      null,
      null,
      null,
      null,
      "2014-07-09",
      "Y",
      "White",
      ">64",
      "NA",
      null,
      null,
      null,
      null
    ],
    [
      "CDISCPILOT01",
      "AE",
      "01-701-1097",
      8.0,
      "E10",
      "PHARYNGOLARYNGEAL PAIN",
      "SORE THROAT",
      null,
      "PHARYNGOLARYNGEAL PAIN",
      null,
      "HLT_0130",
      null,
      "HLGT_0402",
      null,
      "RESPIRATORY, THORACIC AND MEDIASTINAL DISORDERS",
      null,
      "RESPIRATORY, THORACIC AND MEDIASTINAL DISORDERS",
      null,
      "MILD",
      "N",
      null,
      "NONE",
      "RECOVERED/RESOLVED",
      "N",
      "N",
      "N",
      "N",
      "N",
      "N",
      "N",
      "2014-04-23",
      "2014-04-19",
      "2014-04-22",
      109.0,
      112.0,
      "2014-01-01",
      "2014-07-09",
      null,
      "2014-07-09",
      "2014-04-19T00:00:00",
      null,
      "H",
      "2014-04-22T23:59:59",
      null,
      "H",
      "2014-04-19",
      "2014-04-22",
      109.0,
      112.0,
      4.0,
      "days",
      "2014-04-19T00:00:00",
      54.0,
      "mg",
      "MILD",
      "NONE",
      "Y",
      1,
      null,
      "1097",
      "2014-01-01",
      "2014-07-09",
      "2014-01-01",
      "2014-07-09",
      null,
      "2014-07-09T09:39",
      null,
      null,
      "701",
      68.0,
      "YEARS",
      "M",
      "WHITE",
      "NOT HISPANIC OR LATINO",
      "Xan_Lo",
      "Xanomeline Low Dose",
      "Xan_Lo",
      "Xanomeline Low Dose",
      "USA",
      "2013-12-23",
      -9.0,
      "Xanomeline Low Dose",
      "Xanomeline Low Dose",
      "2014-01-01T00:00:00",
      "H",
      "2014-07-09T23:59:59",
      "H",
      190.0,
      null,
      "COMPLETED",
      null,
      "2014-01-01",
      null,
      null,
      null,
      null,
      null,
      null,
      "2014-07-09",
      "Y",
      "White",
      ">64",
      "NA",
      null,
      null,
      null,
      null
    ],
    [
      "CDISCPILOT01",
      "AE",
      "01-701-1097",
      9.0,
      "E11",
      "NASAL CONGESTION",
      "NASAL CONGESTION",
      null,
      "NASAL CONGESTION",
      null,
      "HLT_0118",
      null,
      "HLGT_0549",
      null,
      "RESPIRATORY, THORACIC AND MEDIASTINAL DISORDERS",
      null,
      "RESPIRATORY, THORACIC AND MEDIASTINAL DISORDERS",
      null,
      "MILD",
      "N",
      null,
      "NONE",
      "RECOVERED/RESOLVED",
      "N",
      "N",
      "N",
      "N",
      "N",
      "N",
      "N",
      "2014-04-23",
      "2014-04-19",
      "2014-04-22",
      109.0,
      112.0,
      "2014-01-01",
      "2014-07-09",
      null,
      "2014-07-09",
      "2014-04-19T00:00:00",
      null,
      "H",
      "2014-04-22T23:59:59",
      null,
      "H",
      "2014-04-19",
      "2014-04-22",
      109.0,
      112.0,
      4.0,
      "days",
      "2014-04-19T00:00:00",
      54.0,
      "mg",
      "MILD",
      "NONE",
      "Y",
      1,
      null,
      "1097",
      "2014-01-01",
      "2014-07-09",
      "2014-01-01",
      "2014-07-09",
      null,
      "2014-07-09T09:39",
      null,
      null,
      "701",
      68.0,
      "YEARS",
      "M",
      "WHITE",
      "NOT HISPANIC OR LATINO",
      "Xan_Lo",
      "Xanomeline Low Dose",
      "Xan_Lo",
      "Xanomeline Low Dose",
      "USA",
      "2013-12-23",
      -9.0,
      "Xanomeline Low Dose",
      "Xanomeline Low Dose",
      "2014-01-01T00:00:00",
      "H",
      "2014-07-09T23:59:59",
      "H",
      190.0,
      null,
      "COMPLETED",
      null,
      "2014-01-01",
      null,
      null,
      null,
      null,
      null,
      null,
      "2014-07-09",
      "Y",
      "White",
      ">64",
      "NA",
      null,
      null,
      null,
      null
    ],
    [
      "CDISCPILOT01",
      "AE",
      "01-701-1111",
      7.0,
      "E16",
      "ARTHRALGIA",
      "GENERALIZED JOINT PAIN",
      null,
      "ARTHRALGIA",
      null,
      "HLT_0375",
      null,
      "HLGT_0610",
      null,
      "MUSCULOSKELETAL AND CONNECTIVE TISSUE DISORDERS",
      null,
      "MUSCULOSKELETAL AND CONNECTIVE TISSUE DISORDERS",
      null,
      "MODERATE",
      "N",
      null,
      "NONE",
      "NOT RECOVERED/NOT RESOLVED",
      "N",
      "N",
      "N",
      "N",
      "N",
      "N",
      "N",
      "2012-09-17",
      "2012-09-13",
      null,
      7.0,
      null,
      "2012-09-07",
      "2012-09-16",
      null,
      "2012-09-17",
      "2012-09-13T00:00:00",
      null,
      "H",
      null,
      null,
      null,
      "2012-09-13",
      null,
      7.0,
      null,
      null,
      null,
      "2012-09-13T00:00:00",
      54.0,
      "mg",
      "MODERATE",
      "NONE",
      "Y",
      2,
      "Y",
      "1111",
      "2012-09-07",
      "2012-09-17",
      "2012-09-07",
      "2012-09-16",
      null,
      "2013-02-22",
      null,
      null,
      "701",
      81.0,
      "YEARS",
      "F",
      "WHITE",
      "NOT HISPANIC OR LATINO",
      "Xan_Lo",
      "Xanomeline Low Dose",
      "Xan_Lo",
      "Xanomeline Low Dose",
      "USA",
      "2012-08-25",
      -13.0,
      "Xanomeline Low Dose",
      "Xanomeline Low Dose",
      "2012-09-07T00:00:00",
      "H",
      "2012-09-16T23:59:59",
      "H",
      10.0,
      null,
      "DISCONTINUED",
      "2013-02-22",
      "2012-09-07",
      null,
      null,
      null,
      null,
      null,
      null,
      "2012-09-17",
      "Y",
      "White",
      ">64",
      "NA",
      null,
      null,
      null,
      null
    ],
    [
      "CDISCPILOT01",
      "AE",
      "01-701-1111",
      8.0,
      "E17",
      "CELLULITIS",
      "CELLULITIS OF LEG",
      null,
      "CELLULITIS",
      null,
      "HLT_0613",
      null,
      "HLGT_0066",
      null,
      "INFECTIONS AND INFESTATIONS",
      null,
      "INFECTIONS AND INFESTATIONS",
      null,
      "MODERATE",
      "N",
      null,
      "NONE",
      "NOT RECOVERED/NOT RESOLVED",
      "N",
      "N",
      "N",
      "N",
      "N",
      "N",
      "N",
      "2012-09-17",
      "2012-09-13",
      null,
      7.0,
      null,
      "2012-09-07",
      "2012-09-16",
      null,
      "2012-09-17",
      "2012-09-13T00:00:00",
      null,
      "H",
      null,
      null,
      null,
      "2012-09-13",
      null,
      7.0,
      null,
      null,
      null,
      "2012-09-13T00:00:00",
      54.0,
      "mg",
      "MODERATE",
      "NONE",
      "Y",
      2,
      null,
      "1111",
      "2012-09-07",
      "2012-09-17",
      "2012-09-07",
      "2012-09-16",
      null,
      "2013-02-22",
      null,
      null,
      "701",
      81.0,
      "YEARS",
      "F",
      "WHITE",
      "NOT HISPANIC OR LATINO",
      "Xan_Lo",
      "Xanomeline Low Dose",
      "Xan_Lo",
      "Xanomeline Low Dose",
      "USA",
      "2012-08-25",
      -13.0,
      "Xanomeline Low Dose",
      "Xanomeline Low Dose",
      "2012-09-07T00:00:00",
      "H",
      "2012-09-16T23:59:59",
      "H",
      10.0,
      null,
      "DISCONTINUED",
      "2013-02-22",
      "2012-09-07",
      null,
      null,
      null,
      null,
      null,
      null,
      "2012-09-17",
      "Y",
      "White",
      ">64",
      "NA",
      null,
      null,
      null,
      null
    ],
    [
      "CDISCPILOT01",
      "AE",
      "01-701-1111",
      6.0,
      "E18",
      "MICTURITION URGENCY",
      "URINARY URGENCY",
      null,
      "MICTURITION URGENCY",
      null,
      "HLT_0294",
      null,
      "HLGT_0483",
      null,
      "RENAL AND URINARY DISORDERS",
      null,
      "RENAL AND URINARY DISORDERS",
      null,
      "MILD",
      "N",
      null,
      "NONE",
      "NOT RECOVERED/NOT RESOLVED",
      "N",
      "N",
      "N",
      "N",
      "N",
      "N",
      "N",
      "2012-09-17",
      "2012-09-07",
      null,
      1.0,
      null,
      "2012-09-07",
      "2012-09-16",
      null,
      "2012-09-17",
      "2012-09-07T00:00:00",
      null,
      "H",
      null,
      null,
      null,
      "2012-09-07",
      null,
      1.0,
      null,
      null,
      null,
      "2012-09-07T00:00:00",
      54.0,
      "mg",
      "MILD",
      "NONE",
      "Y",
      1,
      null,
      "1111",
      "2012-09-07",
      "2012-09-17",
      "2012-09-07",
      "2012-09-16",
      null,
      "2013-02-22",
      null,
      null,
      "701",
      81.0,
      "YEARS",
      "F",
      "WHITE",
      "NOT HISPANIC OR LATINO",
      "Xan_Lo",
      "Xanomeline Low Dose",
      "Xan_Lo",
      "Xanomeline Low Dose",
      "USA",
      "2012-08-25",
      -13.0,
      "Xanomeline Low Dose",
      "Xanomeline Low Dose",
      "2012-09-07T00:00:00",
      "H",
      "2012-09-16T23:59:59",
      "H",
      10.0,
      null,
      "DISCONTINUED",
      "2013-02-22",
      "2012-09-07",
      null,
      null,
      null,
      null,
      null,
      null,
      "2012-09-17",
      "Y",
      "White",
      ">64",
      "NA",
      null,
      null,
      null,
      null
    ],
    [
      "CDISCPILOT01",
      "AE",
      "01-701-1115",
      5.0,
      "E09",
      "APPLICATION SITE ERYTHEMA",
      "APPLICATION SITE REDNESS",
      null,
      "APPLICATION SITE ERYTHEMA",
      null,
      "HLT_0617",
      null,
      "HLGT_0152",
      null,
      "GENERAL DISORDERS AND ADMINISTRATION SITE CONDITIONS",
      null,
      "GENERAL DISORDERS AND ADMINISTRATION SITE CONDITIONS",
      null,
      "MODERATE",
      "N",
      null,
      "PROBABLE",
      "NOT RECOVERED/NOT RESOLVED",
      "N",
      "N",
      "N",
      "N",
      "N",
      "N",
      "N",
      "2013-01-23",
      "2012-12-02",
      null,
      3.0,
      null,
      "2012-11-30",
      "2013-01-23",
      null,
      "2013-01-23",
      "2012-12-02T00:00:00",
      null,
      "H",
      null,
      null,
      null,
      "2012-12-02",
      null,
      3.0,
      null,
      null,
      null,
      "2012-12-02T00:00:00",
      54.0,
      "mg",
      "MODERATE",
      "PROBABLE",
      "Y",
      2,
      "Y",
      "1115",
      "2012-11-30",
      "2013-01-23",
      "2012-11-30",
      "2013-01-23",
      null,
      "2013-05-20",
      null,
      null,
      "701",
      84.0,
      "YEARS",
      "M",
      "WHITE",
      "NOT HISPANIC OR LATINO",
      "Xan_Lo",
      "Xanomeline Low Dose",
      "Xan_Lo",
      "Xanomeline Low Dose",
      "USA",
      "2012-11-23",
      -7.0,
      "Xanomeline Low Dose",
      "Xanomeline Low Dose",
      "2012-11-30T00:00:00",
      "H",
      "2013-01-23T23:59:59",
      "H",
      55.0,
      null,
      "DISCONTINUED",
      "2013-05-20",
      "2012-11-30",
      null,
      null,
      null,
      null,
      null,
      null,
      "2013-01-23",
      "Y",
      "White",
      ">64",
      "NA",
      null,
      null,
      null,
      null
    ],
    [
      "CDISCPILOT01",
      "AE",
      "01-701-1115",
      6.0,
      "E11",
      "APPLICATION SITE PRURITUS",
      "APPLICATION SITE ITCHING",
      null,
      "APPLICATION SITE PRURITUS",
      null,
      "HLT_0317",
      null,
      "HLGT_0338",
      null,
      "GENERAL DISORDERS AND ADMINISTRATION SITE CONDITIONS",
      null,
      "GENERAL DISORDERS AND ADMINISTRATION SITE CONDITIONS",
      null,
      "MODERATE",
      "N",
      null,
      "PROBABLE",
      "NOT RECOVERED/NOT RESOLVED",
      "N",
      "N",
      "N",
      "N",
      "N",
      "N",
      "N",
      "2013-01-23",
      "2012-12-02",
      null,
      3.0,
      null,
      "2012-11-30",
      "2013-01-23",
      null,
      "2013-01-23",
      "2012-12-02T00:00:00",
      null,
      "H",
      null,
      null,
      null,
      "2012-12-02",
      null,
      3.0,
      null,
      null,
      null,
      "2012-12-02T00:00:00",
      54.0,
      "mg",
      "MODERATE",
      "PROBABLE",
      "Y",
      2,
      null,
      "1115",
      "2012-11-30",
      "2013-01-23",
      "2012-11-30",
      "2013-01-23",
      null,
      "2013-05-20",
      null,
      null,
      "701",
      84.0,
      "YEARS",
      "M",
      "WHITE",
      "NOT HISPANIC OR LATINO",
      "Xan_Lo",
      "Xanomeline Low Dose",
      "Xan_Lo",
      "Xanomeline Low Dose",
      "USA",
      "2012-11-23",
      -7.0,
      "Xanomeline Low Dose",
      "Xanomeline Low Dose",
      "2012-11-30T00:00:00",
      "H",
      "2013-01-23T23:59:59",
      "H",
      55.0,
      null,
      "DISCONTINUED",
      "2013-05-20",
      "2012-11-30",
      null,
      null,
      null,
      null,
      null,
      null,
      "2013-01-23",
      "Y",
      "White",
      ">64",
      "NA",
      null,
      null,
      null,
      null
    ],
    [
      "CDISCPILOT01",
      "AE",
      "01-701-1115",
      7.0,
      "E13",
      "FATIGUE",
      "FATIGUE",
      null,
      "FATIGUE",
      null,
      "HLT_0043",
      null,
      "HLGT_0181",
      null,
      "GENERAL DISORDERS AND ADMINISTRATION SITE CONDITIONS",
      null,
      "GENERAL DISORDERS AND ADMINISTRATION SITE CONDITIONS",
      null,
      "MODERATE",
      "N",
      null,
      "REMOTE",
      "NOT RECOVERED/NOT RESOLVED",
      "N",
      "N",
      "N",
      "N",
      "N",
      "N",
      "N",
      "2013-01-23",
      "2013-01-14",
      null,
      46.0,
      null,
      "2012-11-30",
      "2013-01-23",
      null,
      "2013-01-23",
      "2013-01-14T00:00:00",
      null,
      "H",
      null,
      null,
      null,
      "2013-01-14",
      null,
      46.0,
      null,
      null,
      null,
      "2013-01-14T00:00:00",
      54.0,
      "mg",
      "MODERATE",
      "REMOTE",
      "Y",
      2,
      null,
      "1115",
      "2012-11-30",
      "2013-01-23",
      "2012-11-30",
      "2013-01-23",
      null,
      "2013-05-20",
      null,
      null,
      "701",
      84.0,
      "YEARS",
      "M",
      "WHITE",
      "NOT HISPANIC OR LATINO",
      "Xan_Lo",
      "Xanomeline Low Dose",
      "Xan_Lo",
      "Xanomeline Low Dose",
      "USA",
      "2012-11-23",
      -7.0,
      "Xanomeline Low Dose",
      "Xanomeline Low Dose",
      "2012-11-30T00:00:00",
      "H",
      "2013-01-23T23:59:59",
      "H",
      55.0,
      null,
      "DISCONTINUED",
      "2013-05-20",
      "2012-11-30",
      null,
      null,
      null,
      null,
      null,
      null,
      "2013-01-23",
      "Y",
      "White",
      ">64",
      "NA",
      null,
      null,
      null,
      null
    ],
    [
      "CDISCPILOT01",
      "AE",
      "01-701-1115",
      8.0,
      "E12",
      "APPLICATION SITE IRRITATION",
      "APPLICATION SITE BURNING",
      null,
      "APPLICATION SITE IRRITATION",
      null,
      "HLT_0061",
      null,
      "HLGT_0346",
      null,
      "GENERAL DISORDERS AND ADMINISTRATION SITE CONDITIONS",
      null,
      "GENERAL DISORDERS AND ADMINISTRATION SITE CONDITIONS",
      null,
      "MODERATE",
      "N",
      null,
      "PROBABLE",
      "NOT RECOVERED/NOT RESOLVED",
      "N",
      "N",
      "N",
      "N",
      "N",
      "N",
      "N",
      "2013-01-23",
      "2013-01-19",
      null,
      51.0,
      null,
      "2012-11-30",
      "2013-01-23",
      null,
      "2013-01-23",
      "2013-01-19T00:00:00",
      null,
      "H",
      null,
      null,
      null,
      "2013-01-19",
      null,
      51.0,
      null,
      null,
      null,
      "2013-01-19T00:00:00",
      54.0,
      "mg",
      "MODERATE",
      "PROBABLE",
      "Y",
      2,
      null,
      "1115",
      "2012-11-30",
      "2013-01-23",
      "2012-11-30",
      "2013-01-23",
      null,
      "2013-05-20",
      null,
      null,
      "701",
      84.0,
      "YEARS",
      "M",
      "WHITE",
      "NOT HISPANIC OR LATINO",
      "Xan_Lo",
      "Xanomeline Low Dose",
      "Xan_Lo",
      "Xanomeline Low Dose",
      "USA",
      "2012-11-23",
      -7.0,
      "Xanomeline Low Dose",
      "Xanomeline Low Dose",
      "2012-11-30T00:00:00",
      "H",
      "2013-01-23T23:59:59",
      "H",
      55.0,
      null,
      "DISCONTINUED",
      "2013-05-20",
      "2012-11-30",
      null,
      null,
      null,
      null,
      null,
      null,
      "2013-01-23",
      "Y",
      "White",
      ">64",
      "NA",
      null,
      null,
      null,
      null
    ],
    [
      "CDISCPILOT01",
      "AE",
      "01-701-1115",
      9.0,
      "E14",
      "APPLICATION SITE DERMATITIS",
      "APPLICATION SITE RASH",
      null,
      "APPLICATION SITE DERMATITIS",
      null,
      "HLT_0343",
      null,
      "HLGT_0241",
      null,
      "GENERAL DISORDERS AND ADMINISTRATION SITE CONDITIONS",
      null,
      "GENERAL DISORDERS AND ADMINISTRATION SITE CONDITIONS",
      null,
      "MODERATE",
      "N",
      null,
      "PROBABLE",
      "NOT RECOVERED/NOT RESOLVED",
      "N",
      "N",
      "N",
      "N",
      "N",
      "N",
      "N",
      "2013-01-23",
      "2013-01-19",
      null,
      51.0,
      null,
      "2012-11-30",
      "2013-01-23",
      null,
      "2013-01-23",
      "2013-01-19T00:00:00",
      null,
      "H",
      null,
      null,
      null,
      "2013-01-19",
      null,
      51.0,
      null,
      null,
      null,
      "2013-01-19T00:00:00",
      54.0,
      "mg",
      "MODERATE",
      "PROBABLE",
      "Y",
      2,
      null,
      "1115",
      "2012-11-30",
      "2013-01-23",
      "2012-11-30",
      "2013-01-23",
      null,
      "2013-05-20",
      null,
      null,
      "701",
      84.0,
      "YEARS",
      "M",
      "WHITE",
      "NOT HISPANIC OR LATINO",
      "Xan_Lo",
      "Xanomeline Low Dose",
      "Xan_Lo",
      "Xanomeline Low Dose",
      "USA",
      "2012-11-23",
      -7.0,
      "Xanomeline Low Dose",
      "Xanomeline Low Dose",
      "2012-11-30T00:00:00",
      "H",
      "2013-01-23T23:59:59",
      "H",
      55.0,
      null,
      "DISCONTINUED",
      "2013-05-20",
      "2012-11-30",
      null,
      null,
      null,
      null,
      null,
      null,
      "2013-01-23",
      "Y",
      "White",
      ">64",
      "NA",
      null,
      null,
      null,
      null
    ],
    [
      "CDISCPILOT01",
      "AE",
      "01-701-1115",
      1.0,
      "E09",
      "APPLICATION SITE ERYTHEMA",
      "APPLICATION SITE REDNESS",
      null,
      "APPLICATION SITE ERYTHEMA",
      null,
      "HLT_0617",
      null,
      "HLGT_0152",
      null,
      "GENERAL DISORDERS AND ADMINISTRATION SITE CONDITIONS",
      null,
      "GENERAL DISORDERS AND ADMINISTRATION SITE CONDITIONS",
      null,
      "MILD",
      "N",
      null,
      "PROBABLE",
      "NOT RECOVERED/NOT RESOLVED",
      "N",
      "N",
      "N",
      "N",
      "N",
      "N",
      "N",
      "2012-12-13",
      "2012-12-02",
      null,
      3.0,
      null,
      "2012-11-30",
      "2013-01-23",
      null,
      "2013-01-23",
      "2012-12-02T00:00:00",
      null,
      "H",
      null,
      null,
      null,
      "2012-12-02",
      null,
      3.0,
      null,
      null,
      null,
      "2012-12-02T00:00:00",
      54.0,
      "mg",
      "MILD",
      "PROBABLE",
      "Y",
      1,
      null,
      "1115",
      "2012-11-30",
      "2013-01-23",
      "2012-11-30",
      "2013-01-23",
      null,
      "2013-05-20",
      null,
      null,
      "701",
      84.0,
      "YEARS",
      "M",
      "WHITE",
      "NOT HISPANIC OR LATINO",
      "Xan_Lo",
      "Xanomeline Low Dose",
      "Xan_Lo",
      "Xanomeline Low Dose",
      "USA",
      "2012-11-23",
      -7.0,
      "Xanomeline Low Dose",
      "Xanomeline Low Dose",
      "2012-11-30T00:00:00",
      "H",
      "2013-01-23T23:59:59",
      "H",
      55.0,
      null,
      "DISCONTINUED",
      "2013-05-20",
      "2012-11-30",
      null,
      null,
      null,
      null,
      null,
      null,
      "2013-01-23",
      "Y",
      "White",
      ">64",
      "NA",
      null,
      null,
      null,
      null
    ],
    [
      "CDISCPILOT01",
      "AE",
      "01-701-1115",
      2.0,
      "E11",
      "APPLICATION SITE PRURITUS",
      "APPLICATION SITE ITCHING",
      null,
      "APPLICATION SITE PRURITUS",
      null,
      "HLT_0317",
      null,
      "HLGT_0338",
      null,
      "GENERAL DISORDERS AND ADMINISTRATION SITE CONDITIONS",
      null,
      "GENERAL DISORDERS AND ADMINISTRATION SITE CONDITIONS",
      null,
      "MILD",
      "N",
      null,
      "PROBABLE",
      "NOT RECOVERED/NOT RESOLVED",
      "N",
      "N",
      "N",
      "N",
      "N",
      "N",
      "N",
      "2012-12-13",
      "2012-12-02",
      null,
      3.0,
      null,
      "2012-11-30",
      "2013-01-23",
      null,
      "2013-01-23",
      "2012-12-02T00:00:00",
      null,
      "H",
      null,
      null,
      null,
      "2012-12-02",
      null,
      3.0,
      null,
      null,
      null,
      "2012-12-02T00:00:00",
      54.0,
      "mg",
      "MILD",
      "PROBABLE",
      "Y",
      1,
      null,
      "1115",
      "2012-11-30",
      "2013-01-23",
      "2012-11-30",
      "2013-01-23",
      null,
      "2013-05-20",
      null,
      null,
      "701",
      84.0,
      "YEARS",
      "M",
      "WHITE",
      "NOT HISPANIC OR LATINO",
      "Xan_Lo",
      "Xanomeline Low Dose",
      "Xan_Lo",
      "Xanomeline Low Dose",
      "USA",
      "2012-11-23",
      -7.0,
      "Xanomeline Low Dose",
      "Xanomeline Low Dose",
      "2012-11-30T00:00:00",
      "H",
      "2013-01-23T23:59:59",
      "H",
      55.0,
      null,
      "DISCONTINUED",
      "2013-05-20",
      "2012-11-30",
      null,
      null,
      null,
      null,
      null,
      null,
      "2013-01-23",
      "Y",
      "White",
      ">64",
      "NA",
      null,
      null,
      null,
      null
    ],
    [
      "CDISCPILOT01",
      "AE",
      "01-701-1115",
      3.0,
      "E10",
      "APPLICATION SITE IRRITATION",
      "APPLICATION SITE BURNING",
      null,
      "APPLICATION SITE IRRITATION",
      null,
      "HLT_0061",
      null,
      "HLGT_0346",
      null,
      "GENERAL DISORDERS AND ADMINISTRATION SITE CONDITIONS",
      null,
      "GENERAL DISORDERS AND ADMINISTRATION SITE CONDITIONS",
      null,
      "MILD",
      "N",
      null,
      "POSSIBLE",
      "NOT RECOVERED/NOT RESOLVED",
      "N",
      "N",
      "N",
      "N",
      "N",
      "N",
      "N",
      "2012-12-26",
      "2012-12-26",
      "2012-12-26",
      27.0,
      27.0,
      "2012-11-30",
      "2013-01-23",
      null,
      "2013-01-23",
      "2012-12-26T00:00:00",
      null,
      "H",
      "2012-12-26T23:59:59",
      null,
      "H",
      "2012-12-26",
      "2012-12-26",
      27.0,
      27.0,
      1.0,
      "days",
      "2012-12-26T00:00:00",
      54.0,
      "mg",
      "MILD",
      "POSSIBLE",
      "Y",
      1,
      null,
      "1115",
      "2012-11-30",
      "2013-01-23",
      "2012-11-30",
      "2013-01-23",
      null,
      "2013-05-20",
      null,
      null,
      "701",
      84.0,
      "YEARS",
      "M",
      "WHITE",
      "NOT HISPANIC OR LATINO",
      "Xan_Lo",
      "Xanomeline Low Dose",
      "Xan_Lo",
      "Xanomeline Low Dose",
      "USA",
      "2012-11-23",
      -7.0,
      "Xanomeline Low Dose",
      "Xanomeline Low Dose",
      "2012-11-30T00:00:00",
      "H",
      "2013-01-23T23:59:59",
      "H",
      55.0,
      null,
      "DISCONTINUED",
      "2013-05-20",
      "2012-11-30",
      null,
      null,
      null,
      null,
      null,
      null,
      "2013-01-23",
      "Y",
      "White",
      ">64",
      "NA",
      null,
      null,
      null,
      null
    ],
    [
      "CDISCPILOT01",
      "AE",
      "01-701-1115",
      4.0,
      "E10",
      "APPLICATION SITE IRRITATION",
      "APPLICATION SITE BURNING",
      null,
      "APPLICATION SITE IRRITATION",
      null,
      "HLT_0061",
      null,
      "HLGT_0346",
      null,
      "GENERAL DISORDERS AND ADMINISTRATION SITE CONDITIONS",
      null,
      "GENERAL DISORDERS AND ADMINISTRATION SITE CONDITIONS",
      null,
      "MILD",
      "N",
      null,
      "POSSIBLE",
      "RECOVERED/RESOLVED",
      "N",
      "N",
      "N",
      "N",
      "N",
      "N",
      "N",
      "2012-12-28",
      "2012-12-26",
      "2012-12-26",
      27.0,
      27.0,
      "2012-11-30",
      "2013-01-23",
      null,
      "2013-01-23",
      "2012-12-26T00:00:00",
      null,
      "H",
      "2012-12-26T23:59:59",
      null,
      "H",
      "2012-12-26",
      "2012-12-26",
      27.0,
      27.0,
      1.0,
      "days",
      "2012-12-26T00:00:00",
      54.0,
      "mg",
      "MILD",
      "POSSIBLE",
      "Y",
      1,
      null,
      "1115",
      "2012-11-30",
      "2013-01-23",
      "2012-11-30",
      "2013-01-23",
      null,
      "2013-05-20",
      null,
      null,
      "701",
      84.0,
      "YEARS",
      "M",
      "WHITE",
      "NOT HISPANIC OR LATINO",
      "Xan_Lo",
      "Xanomeline Low Dose",
      "Xan_Lo",
      "Xanomeline Low Dose",
      "USA",
      "2012-11-23",
      -7.0,
      "Xanomeline Low Dose",
      "Xanomeline Low Dose",
      "2012-11-30T00:00:00",
      "H",
      "2013-01-23T23:59:59",
      "H",
      55.0,
      null,
      "DISCONTINUED",
      "2013-05-20",
      "2012-11-30",
      null,
      null,
      null,
      null,
      null,
      null,
      "2013-01-23",
      "Y",
      "White",
      ">64",
      "NA",
      null,
      null,
      null,
      null
    ],
    [
      "CDISCPILOT01",
      "AE",
      "01-701-1130",
      1.0,
      "E06",
      "URINARY TRACT INFECTION",
      "URINARY TRACT INFECTION",
      null,
      "URINARY TRACT INFECTION",
      null,
      "HLT_0161",
      null,
      "HLGT_0093",
      null,
      "INFECTIONS AND INFESTATIONS",
      null,
      "INFECTIONS AND INFESTATIONS",
      null,
      "MILD",
      "N",
      null,
      "NONE",
      "NOT RECOVERED/NOT RESOLVED",
      "N",
      "N",
      "N",
      "N",
      "N",
      "N",
      "N",
      "2014-03-15",
      "2014-03-09",
      "2014-03-16",
      23.0,
      30.0,
      "2014-02-15",
      "2014-08-16",
      null,
      "2014-08-16",
      "2014-03-09T00:00:00",
      null,
      "H",
      "2014-03-16T23:59:59",
      null,
      "H",
      "2014-03-09",
      "2014-03-16",
      23.0,
      30.0,
      8.0,
      "days",
      "2014-03-09T00:00:00",
      0.0,
      "mg",
      "MILD",
      "NONE",
      "Y",
      1,
      "Y",
      "1130",
      "2014-02-15",
      "2014-08-16",
      "2014-02-15",
      "2014-08-16",
      null,
      "2014-08-16T13:10",
      null,
      null,
      "701",
      84.0,
      "YEARS",
      "M",
      "WHITE",
      "NOT HISPANIC OR LATINO",
      "Pbo",
      "Placebo",
      "Pbo",
      "Placebo",
      "USA",
      "2014-02-09",
      -6.0,
      "Placebo",
      "Placebo",
      "2014-02-15T00:00:00",
      "H",
      "2014-08-16T23:59:59",
      "H",
      183.0,
      null,
      "COMPLETED",
      null,
      "2014-02-15",
      null,
      null,
      null,
      null,
      null,
      null,
      "2014-08-16",
      "Y",
      "White",
      ">64",
      "NA",
      null,
      null,
      null,
      null
    ],
    [
      "CDISCPILOT01",
      "AE",
      "01-701-1130",
      2.0,
      "E07",
      "PYREXIA",
      "FEVER",
      null,
      "PYREXIA",
      null,
      "HLT_0310",
      null,
      "HLGT_0652",
      null,
      "GENERAL DISORDERS AND ADMINISTRATION SITE CONDITIONS",
      null,
      "GENERAL DISORDERS AND ADMINISTRATION SITE CONDITIONS",
      null,
      "MILD",
      "N",
      null,
      "NONE",
      "RECOVERED/RESOLVED",
      "N",
      "N",
      "N",
      "N",
      "N",
      "N",
      "N",
      "2014-03-15",
      "2014-03-09",
      "2014-03-09",
      23.0,
      23.0,
      "2014-02-15",
      "2014-08-16",
      null,
      "2014-08-16",
      "2014-03-09T00:00:00",
      null,
      "H",
      "2014-03-09T23:59:59",
      null,
      "H",
      "2014-03-09",
      "2014-03-09",
      23.0,
      23.0,
      1.0,
      "days",
      "2014-03-09T00:00:00",
      0.0,
      "mg",
      "MILD",
      "NONE",
      "Y",
      1,
      null,
      "1130",
      "2014-02-15",
      "2014-08-16",
      "2014-02-15",
      "2014-08-16",
      null,
      "2014-08-16T13:10",
      null,
      null,
      "701",
      84.0,
      "YEARS",
      "M",
      "WHITE",
      "NOT HISPANIC OR LATINO",
      "Pbo",
      "Placebo",
      "Pbo",
      "Placebo",
      "USA",
      "2014-02-09",
      -6.0,
      "Placebo",
      "Placebo",
      "2014-02-15T00:00:00",
      "H",
      "2014-08-16T23:59:59",
      "H",
      183.0,
      null,
      "COMPLETED",
      null,
      "2014-02-15",
      null,
      null,
      null,
      null,
      null,
      null,
      "2014-08-16",
      "Y",
      "White",
      ">64",
      "NA",
      null,
      null,
      null,
      null
    ],
    [
      "CDISCPILOT01",
      "AE",
      "01-701-1130",
      3.0,
      "E06",
      "URINARY TRACT INFECTION",
      "URINARY TRACT INFECTION",
      null,
      "URINARY TRACT INFECTION",
      null,
      "HLT_0161",
      null,
      "HLGT_0093",
      null,
      "INFECTIONS AND INFESTATIONS",
      null,
      "INFECTIONS AND INFESTATIONS",
      null,
      "MILD",
      "N",
      null,
      "NONE",
      "RECOVERED/RESOLVED",
      "N",
      "N",
      "N",
      "N",
      "N",
      "N",
      "N",
      "2014-03-17",
      "2014-03-09",
      "2014-03-16",
      23.0,
      30.0,
      "2014-02-15",
      "2014-08-16",
      null,
      "2014-08-16",
      "2014-03-09T00:00:00",
      null,
      "H",
      "2014-03-16T23:59:59",
      null,
      "H",
      "2014-03-09",
      "2014-03-16",
      23.0,
      30.0,
      8.0,
      "days",
      "2014-03-09T00:00:00",
      0.0,
      "mg",
      "MILD",
      "NONE",
      "Y",
      1,
      null,
      "1130",
      "2014-02-15",
      "2014-08-16",
      "2014-02-15",
      "2014-08-16",
      null,
      "2014-08-16T13:10",
      null,
      null,
      "701",
      84.0,
      "YEARS",
      "M",
      "WHITE",
      "NOT HISPANIC OR LATINO",
      "Pbo",
      "Placebo",
      "Pbo",
      "Placebo",
      "USA",
      "2014-02-09",
      -6.0,
      "Placebo",
      "Placebo",
      "2014-02-15T00:00:00",
      "H",
      "2014-08-16T23:59:59",
      "H",
      183.0,
      null,
      "COMPLETED",
      null,
      "2014-02-15",
      null,
      null,
      null,
      null,
      null,
      null,
      "2014-08-16",
      "Y",
      "White",
      ">64",
      "NA",
      null,
      null,
      null,
      null
    ],
    [
      "CDISCPILOT01",
      "AE",
      "01-701-1130",
      4.0,
      "E08",
      "EYE SWELLING",
      "EYES SWOLLEN",
      null,
      "EYE SWELLING",
      null,
      "HLT_0008",
      null,
      "HLGT_0466",
      null,
      "EYE DISORDERS",
      null,
      "EYE DISORDERS",
      null,
      "MILD",
      "N",
      null,
      "NONE",
      "RECOVERED/RESOLVED",
      "N",
      "N",
      "N",
      "N",
      "N",
      "N",
      "N",
      "2014-05-16",
      "2014-05-09",
      "2014-05-09",
      84.0,
      84.0,
      "2014-02-15",
      "2014-08-16",
      null,
      "2014-08-16",
      "2014-05-09T00:00:00",
      null,
      "H",
      "2014-05-09T23:59:59",
      null,
      "H",
      "2014-05-09",
      "2014-05-09",
      84.0,
      84.0,
      1.0,
      "days",
      "2014-05-09T00:00:00",
      0.0,
      "mg",
      "MILD",
      "NONE",
      "Y",
      1,
      null,
      "1130",
      "2014-02-15",
      "2014-08-16",
      "2014-02-15",
      "2014-08-16",
      null,
      "2014-08-16T13:10",
      null,
      null,
      "701",
      84.0,
      "YEARS",
      "M",
      "WHITE",
      "NOT HISPANIC OR LATINO",
      "Pbo",
      "Placebo",
      "Pbo",
      "Placebo",
      "USA",
      "2014-02-09",
      -6.0,
      "Placebo",
      "Placebo",
      "2014-02-15T00:00:00",
      "H",
      "2014-08-16T23:59:59",
      "H",
      183.0,
      null,
      "COMPLETED",
      null,
      "2014-02-15",
      null,
      null,
      null,
      null,
      null,
      null,
      "2014-08-16",
      "Y",
      "White",
      ">64",
      "NA",
      null,
      null,
      null,
      null
    ],
    [
      "CDISCPILOT01",
      "AE",
      "01-701-1130",
      5.0,
      "E09",
      "EYE ALLERGY",
      "EYE ALLERGY",
      null,
      "EYE ALLERGY",
      null,
      "HLT_0256",
      null,
      "HLGT_0071",
      null,
      "EYE DISORDERS",
      null,
      "EYE DISORDERS",
      null,
      "MILD",
      "N",
      null,
      "NONE",
      "RECOVERED/RESOLVED",
      "N",
      "N",
      "N",
      "N",
      "N",
      "N",
      "N",
      "2014-05-16",
      "2014-05-09",
      "2014-05-09",
      84.0,
      84.0,
      "2014-02-15",
      "2014-08-16",
      null,
      "2014-08-16",
      "2014-05-09T00:00:00",
      null,
      "H",
      "2014-05-09T23:59:59",
      null,
      "H",
      "2014-05-09",
      "2014-05-09",
      84.0,
      84.0,
      1.0,
      "days",
      "2014-05-09T00:00:00",
      0.0,
      "mg",
      "MILD",
      "NONE",
      "Y",
      1,
      null,
      "1130",
      "2014-02-15",
      "2014-08-16",
      "2014-02-15",
      "2014-08-16",
      null,
      "2014-08-16T13:10",
      null,
      null,
      "701",
      84.0,
      "YEARS",
      "M",
      "WHITE",
      "NOT HISPANIC OR LATINO",
      "Pbo",
      "Placebo",
      "Pbo",
      "Placebo",
      "USA",
      "2014-02-09",
      -6.0,
      "Placebo",
      "Placebo",
      "2014-02-15T00:00:00",
      "H",
      "2014-08-16T23:59:59",
      "H",
      183.0,
      null,
      "COMPLETED",
      null,
      "2014-02-15",
      null,
      null,
      null,
      null,
      null,
      null,
      "2014-08-16",
      "Y",
      "White",
      ">64",
      "NA",
      null,
      null,
      null,
      null
    ],
    [
      "CDISCPILOT01",
      "AE",
      "01-701-1130",
      6.0,
      "E10",
      "EYE PRURITUS",
      "EYE ITCHING",
      null,
      "EYE PRURITUS",
      null,
      "HLT_0523",
      null,
      "HLGT_0240",
      null,
      "EYE DISORDERS",
      null,
      "EYE DISORDERS",
      null,
      "MILD",
      "N",
      null,
      "REMOTE",
      "NOT RECOVERED/NOT RESOLVED",
      "N",
      "N",
      "N",
      "N",
      "N",
      "N",
      "N",
      "2014-06-07",
      "2014-05-22",
      null,
      97.0,
      null,
      "2014-02-15",
      "2014-08-16",
      null,
      "2014-08-16",
      "2014-05-22T00:00:00",
      null,
      "H",
      null,
      null,
      null,
      "2014-05-22",
      null,
      97.0,
      null,
      null,
      null,
      "2014-05-22T00:00:00",
      0.0,
      "mg",
      "MILD",
      "REMOTE",
      "Y",
      1,
      null,
      "1130",
      "2014-02-15",
      "2014-08-16",
      "2014-02-15",
      "2014-08-16",
      null,
      "2014-08-16T13:10",
      null,
      null,
      "701",
      84.0,
      "YEARS",
      "M",
      "WHITE",
      "NOT HISPANIC OR LATINO",
      "Pbo",
      "Placebo",
      "Pbo",
      "Placebo",
      "USA",
      "2014-02-09",
      -6.0,
      "Placebo",
      "Placebo",
      "2014-02-15T00:00:00",
      "H",
      "2014-08-16T23:59:59",
      "H",
      183.0,
      null,
      "COMPLETED",
      null,
      "2014-02-15",
      null,
      null,
      null,
      null,
      null,
      null,
      "2014-08-16",
      "Y",
      "White",
      ">64",
      "NA",
      null,
      null,
      null,
      null
    ],
    [
      "CDISCPILOT01",
      "AE",
      "01-701-1130",
      7.0,
      "E11",
      "PRURITUS",
      "ITCHING BOTH HANDS",
      null,
      "PRURITUS",
      null,
      "HLT_0778",
      null,
      "HLGT_0695",
      null,
      "SKIN AND SUBCUTANEOUS TISSUE DISORDERS",
      null,
      "SKIN AND SUBCUTANEOUS TISSUE DISORDERS",
      null,
      "MILD",
      "N",
      null,
      "REMOTE",
      "NOT RECOVERED/NOT RESOLVED",
      "N",
      "N",
      "N",
      "N",
      "N",
      "N",
      "N",
      "2014-06-07",
      "2014-05-22",
      null,
      97.0,
      null,
      "2014-02-15",
      "2014-08-16",
      null,
      "2014-08-16",
      "2014-05-22T00:00:00",
      null,
      "H",
      null,
      null,
      null,
      "2014-05-22",
      null,
      97.0,
      null,
      null,
      null,
      "2014-05-22T00:00:00",
      0.0,
      "mg",
      "MILD",
      "REMOTE",
      "Y",
      1,
      null,
      "1130",
      "2014-02-15",
      "2014-08-16",
      "2014-02-15",
      "2014-08-16",
      null,
      "2014-08-16T13:10",
      null,
      null,
      "701",
      84.0,
      "YEARS",
      "M",
      "WHITE",
      "NOT HISPANIC OR LATINO",
      "Pbo",
      "Placebo",
      "Pbo",
      "Placebo",
      "USA",
      "2014-02-09",
      -6.0,
      "Placebo",
      "Placebo",
      "2014-02-15T00:00:00",
      "H",
      "2014-08-16T23:59:59",
      "H",
      183.0,
      null,
      "COMPLETED",
      null,
      "2014-02-15",
      null,
      null,
      null,
      null,
      null,
      null,
      "2014-08-16",
      "Y",
      "White",
      ">64",
      "NA",
      null,
      null,
      null,
      null
    ],
    [
      "CDISCPILOT01",
      "AE",
      "01-701-1130",
      8.0,
      "E12",
      "NASAL CONGESTION",
      "NASAL CONGESTION",
      null,
      "NASAL CONGESTION",
      null,
      "HLT_0118",
      null,
      "HLGT_0549",
      null,
      "RESPIRATORY, THORACIC AND MEDIASTINAL DISORDERS",
      null,
      "RESPIRATORY, THORACIC AND MEDIASTINAL DISORDERS",
      null,
      "MILD",
      "N",
      null,
      "REMOTE",
      "NOT RECOVERED/NOT RESOLVED",
      "N",
      "N",
      "N",
      "N",
      "N",
      "N",
      "N",
      "2014-06-07",
      "2014-05-22",
      null,
      97.0,
      null,
      "2014-02-15",
      "2014-08-16",
      null,
      "2014-08-16",
      "2014-05-22T00:00:00",
      null,
      "H",
      null,
      null,
      null,
      "2014-05-22",
      null,
      97.0,
      null,
      null,
      null,
      "2014-05-22T00:00:00",
      0.0,
      "mg",
      "MILD",
      "REMOTE",
      "Y",
      1,
      null,
      "1130",
      "2014-02-15",
      "2014-08-16",
      "2014-02-15",
      "2014-08-16",
      null,
      "2014-08-16T13:10",
      null,
      null,
      "701",
      84.0,
      "YEARS",
      "M",
      "WHITE",
      "NOT HISPANIC OR LATINO",
      "Pbo",
      "Placebo",
      "Pbo",
      "Placebo",
      "USA",
      "2014-02-09",
      -6.0,
      "Placebo",
      "Placebo",
      "2014-02-15T00:00:00",
      "H",
      "2014-08-16T23:59:59",
      "H",
      183.0,
      null,
      "COMPLETED",
      null,
      "2014-02-15",
      null,
      null,
      null,
      null,
      null,
      null,
      "2014-08-16",
      "Y",
      "White",
      ">64",
      "NA",
      null,
      null,
      null,
      null
    ],
    [
      "CDISCPILOT01",
      "AE",
      "01-701-1133",
      3.0,
      "E04",
      "APPLICATION SITE ERYTHEMA",
      "APPLICATION SITE REDNESS",
      null,
      "APPLICATION SITE ERYTHEMA",
      null,
      "HLT_0617",
      null,
      "HLGT_0152",
      null,
      "GENERAL DISORDERS AND ADMINISTRATION SITE CONDITIONS",
      null,
      "GENERAL DISORDERS AND ADMINISTRATION SITE CONDITIONS",
      null,
      "MODERATE",
      "N",
      null,
      "PROBABLE",
      "NOT RECOVERED/NOT RESOLVED",
      "N",
      "N",
      "N",
      "N",
      "N",
      "N",
      "N",
      "2013-02-18",
      "2012-12-27",
      null,
      61.0,
      null,
      "2012-10-28",
      "2013-04-28",
      null,
      "2013-04-29",
      "2012-12-27T00:00:00",
      null,
      "H",
      null,
      null,
      null,
      "2012-12-27",
      null,
      61.0,
      null,
      null,
      null,
      "2012-11-12T00:00:00",
      null,
      null,
      "MODERATE",
      "PROBABLE",
      "Y",
      2,
      "Y",
      "1133",
      "2012-10-28",
      "2013-04-29",
      "2012-10-28",
      "2013-04-28",
      null,
      "2013-04-29T10:13",
      null,
      null,
      "701",
      81.0,
      "YEARS",
      "F",
      "WHITE",
      "NOT HISPANIC OR LATINO",
      "Xan_Hi",
      "Xanomeline High Dose",
      "Xan_Hi",
      "Xanomeline High Dose",
      "USA",
      "2012-10-23",
      -5.0,
      "Xanomeline High Dose",
      "Xanomeline High Dose",
      "2012-10-28T00:00:00",
      "H",
      "2013-04-28T23:59:59",
      "H",
      183.0,
      null,
      "COMPLETED",
      null,
      "2012-10-28",
      null,
      null,
      null,
      null,
      null,
      null,
      "2013-04-29",
      "Y",
      "White",
      ">64",
      "NA",
      null,
      null,
      null,
      null
    ],
    [
      "CDISCPILOT01",
      "AE",
      "01-701-1133",
      4.0,
      "E05",
      "APPLICATION SITE PRURITUS",
      "APPLICATION SITE ITCHING",
      null,
      "APPLICATION SITE PRURITUS",
      null,
      "HLT_0317",
      null,
      "HLGT_0338",
      null,
      "GENERAL DISORDERS AND ADMINISTRATION SITE CONDITIONS",
      null,
      "GENERAL DISORDERS AND ADMINISTRATION SITE CONDITIONS",
      null,
      "MODERATE",
      "N",
      null,
      "PROBABLE",
      "NOT RECOVERED/NOT RESOLVED",
      "N",
      "N",
      "N",
      "N",
      "N",
      "N",
      "N",
      "2013-02-18",
      "2012-12-27",
      null,
      61.0,
      null,
      "2012-10-28",
      "2013-04-28",
      null,
      "2013-04-29",
      "2012-12-27T00:00:00",
      null,
      "H",
      null,
      null,
      null,
      "2012-12-27",
      null,
      61.0,
      null,
      null,
      null,
      "2012-11-12T00:00:00",
      null,
      null,
      "MODERATE",
      "PROBABLE",
      "Y",
      2,
      null,
      "1133",
      "2012-10-28",
      "2013-04-29",
      "2012-10-28",
      "2013-04-28",
      null,
      "2013-04-29T10:13",
      null,
      null,
      "701",
      81.0,
      "YEARS",
      "F",
      "WHITE",
      "NOT HISPANIC OR LATINO",
      "Xan_Hi",
      "Xanomeline High Dose",
      "Xan_Hi",
      "Xanomeline High Dose",
      "USA",
      "2012-10-23",
      -5.0,
      "Xanomeline High Dose",
      "Xanomeline High Dose",
      "2012-10-28T00:00:00",
      "H",
      "2013-04-28T23:59:59",
      "H",
      183.0,
      null,
      "COMPLETED",
      null,
      "2012-10-28",
      null,
      null,
      null,
      null,
      null,
      null,
      "2013-04-29",
      "Y",
      "White",
      ">64",
      "NA",
      null,
      null,
      null,
      null
    ],
    [
      "CDISCPILOT01",
      "AE",
      "01-701-1133",
      1.0,
      "E04",
      "APPLICATION SITE ERYTHEMA",
      "APPLICATION SITE REDNESS",
      null,
      "APPLICATION SITE ERYTHEMA",
      null,
      "HLT_0617",
      null,
      "HLGT_0152",
      null,
      "GENERAL DISORDERS AND ADMINISTRATION SITE CONDITIONS",
      null,
      "GENERAL DISORDERS AND ADMINISTRATION SITE CONDITIONS",
      null,
      "MILD",
      "N",
      null,
      "PROBABLE",
      "NOT RECOVERED/NOT RESOLVED",
      "N",
      "N",
      "N",
      "N",
      "N",
      "N",
      "N",
      "2013-01-22",
      "2012-12-27",
      null,
      61.0,
      null,
      "2012-10-28",
      "2013-04-28",
      null,
      "2013-04-29",
      "2012-12-27T00:00:00",
      null,
      "H",
      null,
      null,
      null,
      "2012-12-27",
      null,
      61.0,
      null,
      null,
      null,
      "2012-11-12T00:00:00",
      null,
      null,
      "MILD",
      "PROBABLE",
      "Y",
      1,
      null,
      "1133",
      "2012-10-28",
      "2013-04-29",
      "2012-10-28",
      "2013-04-28",
      null,
      "2013-04-29T10:13",
      null,
      null,
      "701",
      81.0,
      "YEARS",
      "F",
      "WHITE",
      "NOT HISPANIC OR LATINO",
      "Xan_Hi",
      "Xanomeline High Dose",
      "Xan_Hi",
      "Xanomeline High Dose",
      "USA",
      "2012-10-23",
      -5.0,
      "Xanomeline High Dose",
      "Xanomeline High Dose",
      "2012-10-28T00:00:00",
      "H",
      "2013-04-28T23:59:59",
      "H",
      183.0,
      null,
      "COMPLETED",
      null,
      "2012-10-28",
      null,
      null,
      null,
      null,
      null,
      null,
      "2013-04-29",
      "Y",
      "White",
      ">64",
      "NA",
      null,
      null,
      null,
      null
    ],
    [
      "CDISCPILOT01",
      "AE",
      "01-701-1133",
      2.0,
      "E05",
      "APPLICATION SITE PRURITUS",
      "APPLICATION SITE ITCHING",
      null,
      "APPLICATION SITE PRURITUS",
      null,
      "HLT_0317",
      null,
      "HLGT_0338",
      null,
      "GENERAL DISORDERS AND ADMINISTRATION SITE CONDITIONS",
      null,
      "GENERAL DISORDERS AND ADMINISTRATION SITE CONDITIONS",
      null,
      "MILD",
      "N",
      null,
      "PROBABLE",
      "NOT RECOVERED/NOT RESOLVED",
      "N",
      "N",
      "N",
      "N",
      "N",
      "N",
      "N",
      "2013-01-22",
      "2012-12-27",
      null,
      61.0,
      null,
      "2012-10-28",
      "2013-04-28",
      null,
      "2013-04-29",
      "2012-12-27T00:00:00",
      null,
      "H",
      null,
      null,
      null,
      "2012-12-27",
      null,
      61.0,
      null,
      null,
      null,
      "2012-11-12T00:00:00",
      null,
      null,
      "MILD",
      "PROBABLE",
      "Y",
      1,
      null,
      "1133",
      "2012-10-28",
      "2013-04-29",
      "2012-10-28",
      "2013-04-28",
      null,
      "2013-04-29T10:13",
      null,
      null,
      "701",
      81.0,
      "YEARS",
      "F",
      "WHITE",
      "NOT HISPANIC OR LATINO",
      "Xan_Hi",
      "Xanomeline High Dose",
      "Xan_Hi",
      "Xanomeline High Dose",
      "USA",
      "2012-10-23",
      -5.0,
      "Xanomeline High Dose",
      "Xanomeline High Dose",
      "2012-10-28T00:00:00",
      "H",
      "2013-04-28T23:59:59",
      "H",
      183.0,
      null,
      "COMPLETED",
      null,
      "2012-10-28",
      null,
      null,
      null,
      null,
      null,
      null,
      "2013-04-29",
      "Y",
      "White",
      ">64",
      "NA",
      null,
      null,
      null,
      null
    ],
    [
      "CDISCPILOT01",
      "AE",
      "01-701-1146",
      7.0,
      "E12",
      "APPLICATION SITE ERYTHEMA",
      "APPLICATION SITE ERYTHEMA",
      null,
      "APPLICATION SITE ERYTHEMA",
      null,
      "HLT_0617",
      null,
      "HLGT_0152",
      null,
      "GENERAL DISORDERS AND ADMINISTRATION SITE CONDITIONS",
      null,
      "GENERAL DISORDERS AND ADMINISTRATION SITE CONDITIONS",
      null,
      "MODERATE",
      "N",
      null,
      "PROBABLE",
      "NOT RECOVERED/NOT RESOLVED",
      "N",
      "N",
      "N",
      "N",
      "N",
      "N",
      "N",
      "2013-06-30",
      "2013-06-10",
      null,
      22.0,
      null,
      "2013-05-20",
      "2013-06-26",
      null,
      "2013-06-30",
      "2013-06-10T00:00:00",
      null,
      "H",
      null,
      null,
      null,
      "2013-06-10",
      null,
      22.0,
      null,
      null,
      null,
      "2013-06-03T00:00:00",
      null,
      null,
      "MODERATE",
      "PROBABLE",
      "Y",
      2,
      "Y",
      "1146",
      "2013-05-20",
      "2013-06-30",
      "2013-05-20",
      "2013-06-26",
      null,
      "2013-07-15",
      null,
      null,
      "701",
      75.0,
      "YEARS",
      "F",
      "WHITE",
      "NOT HISPANIC OR LATINO",
      "Xan_Hi",
      "Xanomeline High Dose",
      "Xan_Hi",
      "Xanomeline High Dose",
      "USA",
      "2013-05-07",
      -13.0,
      "Xanomeline High Dose",
      "Xanomeline High Dose",
      "2013-05-20T00:00:00",
      "H",
      "2013-06-26T23:59:59",
      "H",
      38.0,
      null,
      "DISCONTINUED",
      null,
      "2013-05-20",
      null,
      null,
      null,
      null,
      null,
      null,
      "2013-06-30",
      "Y",
      "White",
      ">64",
      "NA",
      null,
      null,
      null,
      null
    ],
    [
      "CDISCPILOT01",
      "AE",
      "01-701-1146",
      8.0,
      "E13",
      "APPLICATION SITE PRURITUS",
      "APPLICATION SITE ITCHING",
      null,
      "APPLICATION SITE PRURITUS",
      null,
      "HLT_0317",
      null,
      "HLGT_0338",
      null,
      "GENERAL DISORDERS AND ADMINISTRATION SITE CONDITIONS",
      null,
      "GENERAL DISORDERS AND ADMINISTRATION SITE CONDITIONS",
      null,
      "MODERATE",
      "N",
      null,
      "PROBABLE",
      "NOT RECOVERED/NOT RESOLVED",
      "N",
      "N",
      "N",
      "N",
      "N",
      "N",
      "N",
      "2013-06-30",
      "2013-06-10",
      null,
      22.0,
      null,
      "2013-05-20",
      "2013-06-26",
      null,
      "2013-06-30",
      "2013-06-10T00:00:00",
      null,
      "H",
      null,
      null,
      null,
      "2013-06-10",
      null,
      22.0,
      null,
      null,
      null,
      "2013-06-03T00:00:00",
      null,
      null,
      "MODERATE",
      "PROBABLE",
      "Y",
      2,
      null,
      "1146",
      "2013-05-20",
      "2013-06-30",
      "2013-05-20",
      "2013-06-26",
      null,
      "2013-07-15",
      null,
      null,
      "701",
      75.0,
      "YEARS",
      "F",
      "WHITE",
      "NOT HISPANIC OR LATINO",
      "Xan_Hi",
      "Xanomeline High Dose",
      "Xan_Hi",
      "Xanomeline High Dose",
      "USA",
      "2013-05-07",
      -13.0,
      "Xanomeline High Dose",
      "Xanomeline High Dose",
      "2013-05-20T00:00:00",
      "H",
      "2013-06-26T23:59:59",
      "H",
      38.0,
      null,
      "DISCONTINUED",
      null,
      "2013-05-20",
      null,
      null,
      null,
      null,
      null,
      null,
      "2013-06-30",
      "Y",
      "White",
      ">64",
      "NA",
      null,
      null,
      null,
      null
    ],
    [
      "CDISCPILOT01",
      "AE",
      "01-701-1146",
      9.0,
      "E14",
      "APPLICATION SITE PAIN",
      "APPLICATION SITE PAIN",
      null,
      "APPLICATION SITE PAIN",
      null,
      "HLT_0342",
      null,
      "HLGT_0085",
      null,
      "GENERAL DISORDERS AND ADMINISTRATION SITE CONDITIONS",
      null,
      "GENERAL DISORDERS AND ADMINISTRATION SITE CONDITIONS",
      null,
      "MODERATE",
      "N",
      null,
      "PROBABLE",
      "NOT RECOVERED/NOT RESOLVED",
      "N",
      "N",
      "N",
      "N",
      "N",
      "N",
      "N",
      "2013-06-30",
      "2013-06-22",
      null,
      34.0,
      null,
      "2013-05-20",
      "2013-06-26",
      null,
      "2013-06-30",
      "2013-06-22T00:00:00",
      null,
      "H",
      null,
      null,
      null,
      "2013-06-22",
      null,
      34.0,
      null,
      null,
      null,
      "2013-06-03T00:00:00",
      null,
      null,
      "MODERATE",
      "PROBABLE",
      "Y",
      2,
      null,
      "1146",
      "2013-05-20",
      "2013-06-30",
      "2013-05-20",
      "2013-06-26",
      null,
      "2013-07-15",
      null,
      null,
      "701",
      75.0,
      "YEARS",
      "F",
      "WHITE",
      "NOT HISPANIC OR LATINO",
      "Xan_Hi",
      "Xanomeline High Dose",
      "Xan_Hi",
      "Xanomeline High Dose",
      "USA",
      "2013-05-07",
      -13.0,
      "Xanomeline High Dose",
      "Xanomeline High Dose",
      "2013-05-20T00:00:00",
      "H",
      "2013-06-26T23:59:59",
      "H",
      38.0,
      null,
      "DISCONTINUED",
      null,
      "2013-05-20",
      null,
      null,
      null,
      null,
      null,
      null,
      "2013-06-30",
      "Y",
      "White",
      ">64",
      "NA",
      null,
      null,
      null,
      null
    ],
    [
      "CDISCPILOT01",
      "AE",
      "01-701-1146",
      10.0,
      "E15",
      "APPLICATION SITE VESICLES",
      "APPLICATION SITE VESICLES",
      null,
      "APPLICATION SITE VESICLES",
      null,
      "HLT_0180",
      null,
      "HLGT_0576",
      null,
      "GENERAL DISORDERS AND ADMINISTRATION SITE CONDITIONS",
      null,
      "GENERAL DISORDERS AND ADMINISTRATION SITE CONDITIONS",
      null,
      "MODERATE",
      "N",
      null,
      "PROBABLE",
      "NOT RECOVERED/NOT RESOLVED",
      "N",
      "N",
      "N",
      "N",
      "N",
      "N",
      "N",
      "2013-06-30",
      "2013-06-26",
      null,
      38.0,
      null,
      "2013-05-20",
      "2013-06-26",
      null,
      "2013-06-30",
      "2013-06-26T00:00:00",
      null,
      "H",
      null,
      null,
      null,
      "2013-06-26",
      null,
      38.0,
      null,
      null,
      null,
      "2013-06-03T00:00:00",
      null,
      null,
      "MODERATE",
      "PROBABLE",
      "Y",
      2,
      null,
      "1146",
      "2013-05-20",
      "2013-06-30",
      "2013-05-20",
      "2013-06-26",
      null,
      "2013-07-15",
      null,
      null,
      "701",
      75.0,
      "YEARS",
      "F",
      "WHITE",
      "NOT HISPANIC OR LATINO",
      "Xan_Hi",
      "Xanomeline High Dose",
      "Xan_Hi",
      "Xanomeline High Dose",
      "USA",
      "2013-05-07",
      -13.0,
      "Xanomeline High Dose",
      "Xanomeline High Dose",
      "2013-05-20T00:00:00",
      "H",
      "2013-06-26T23:59:59",
      "H",
      38.0,
      null,
      "DISCONTINUED",
      null,
      "2013-05-20",
      null,
      null,
      null,
      null,
      null,
      null,
      "2013-06-30",
      "Y",
      "White",
      ">64",
      "NA",
      null,
      null,
      null,
      null
    ],
    [
      "CDISCPILOT01",
      "AE",
      "01-701-1146",
      11.0,
      "E16",
      "APPLICATION SITE IRRITATION",
      "APPLICATION SITE BURNING",
      null,
      "APPLICATION SITE IRRITATION",
      null,
      "HLT_0061",
      null,
      "HLGT_0346",
      null,
      "GENERAL DISORDERS AND ADMINISTRATION SITE CONDITIONS",
      null,
      "GENERAL DISORDERS AND ADMINISTRATION SITE CONDITIONS",
      null,
      "MODERATE",
      "N",
      null,
      "PROBABLE",
      "NOT RECOVERED/NOT RESOLVED",
      "N",
      "N",
      "N",
      "N",
      "N",
      "N",
      "N",
      "2013-06-30",
      "2013-06-26",
      null,
      38.0,
      null,
      "2013-05-20",
      "2013-06-26",
      null,
      "2013-06-30",
      "2013-06-26T00:00:00",
      null,
      "H",
      null,
      null,
      null,
      "2013-06-26",
      null,
      38.0,
      null,
      null,
      null,
      "2013-06-03T00:00:00",
      null,
      null,
      "MODERATE",
      "PROBABLE",
      "Y",
      2,
      null,
      "1146",
      "2013-05-20",
      "2013-06-30",
      "2013-05-20",
      "2013-06-26",
      null,
      "2013-07-15",
      null,
      null,
      "701",
      75.0,
      "YEARS",
      "F",
      "WHITE",
      "NOT HISPANIC OR LATINO",
      "Xan_Hi",
      "Xanomeline High Dose",
      "Xan_Hi",
      "Xanomeline High Dose",
      "USA",
      "2013-05-07",
      -13.0,
      "Xanomeline High Dose",
      "Xanomeline High Dose",
      "2013-05-20T00:00:00",
      "H",
      "2013-06-26T23:59:59",
      "H",
      38.0,
      null,
      "DISCONTINUED",
      null,
      "2013-05-20",
      null,
      null,
      null,
      null,
      null,
      null,
      "2013-06-30",
      "Y",
      "White",
      ">64",
      "NA",
      null,
      null,
      null,
      null
    ],
    [
      "CDISCPILOT01",
      "AE",
      "01-701-1146",
      3.0,
      "E10",
      "APPLICATION SITE IRRITATION",
      "APPLICATION SITE IRRITATION",
      null,
      "APPLICATION SITE IRRITATION",
      null,
      "HLT_0061",
      null,
      "HLGT_0346",
      null,
      "GENERAL DISORDERS AND ADMINISTRATION SITE CONDITIONS",
      null,
      "GENERAL DISORDERS AND ADMINISTRATION SITE CONDITIONS",
      null,
      "MILD",
      "N",
      null,
      "PROBABLE",
      "RECOVERED/RESOLVED",
      "N",
      "N",
      "N",
      "N",
      "N",
      "N",
      "N",
      "2013-06-03",
      "2013-06-01",
      "2013-06-02",
      13.0,
      14.0,
      "2013-05-20",
      "2013-06-26",
      null,
      "2013-06-30",
      "2013-06-01T00:00:00",
      null,
      "H",
      "2013-06-02T23:59:59",
      null,
      "H",
      "2013-06-01",
      "2013-06-02",
      13.0,
      14.0,
      2.0,
      "days",
      "2013-06-01T00:00:00",
      54.0,
      "mg",
      "MILD",
      "PROBABLE",
      "Y",
      1,
      null,
      "1146",
      "2013-05-20",
      "2013-06-30",
      "2013-05-20",
      "2013-06-26",
      null,
      "2013-07-15",
      null,
      null,
      "701",
      75.0,
      "YEARS",
      "F",
      "WHITE",
      "NOT HISPANIC OR LATINO",
      "Xan_Hi",
      "Xanomeline High Dose",
      "Xan_Hi",
      "Xanomeline High Dose",
      "USA",
      "2013-05-07",
      -13.0,
      "Xanomeline High Dose",
      "Xanomeline High Dose",
      "2013-05-20T00:00:00",
      "H",
      "2013-06-26T23:59:59",
      "H",
      38.0,
      null,
      "DISCONTINUED",
      null,
      "2013-05-20",
      null,
      null,
      null,
      null,
      null,
      null,
      "2013-06-30",
      "Y",
      "White",
      ">64",
      "NA",
      null,
      null,
      null,
      null
    ],
    [
      "CDISCPILOT01",
      "AE",
      "01-701-1146",
      4.0,
      "E11",
      "FATIGUE",
      "FATIGUE",
      null,
      "FATIGUE",
      null,
      "HLT_0043",
      null,
      "HLGT_0181",
      null,
      "GENERAL DISORDERS AND ADMINISTRATION SITE CONDITIONS",
      null,
      "GENERAL DISORDERS AND ADMINISTRATION SITE CONDITIONS",
      null,
      "MILD",
      "N",
      null,
      "POSSIBLE",
      "NOT RECOVERED/NOT RESOLVED",
      "N",
      "N",
      "N",
      "N",
      "N",
      "N",
      "N",
      "2013-06-03",
      "2013-06-03",
      null,
      15.0,
      null,
      "2013-05-20",
      "2013-06-26",
      null,
      "2013-06-30",
      "2013-06-03T00:00:00",
      null,
      "H",
      null,
      null,
      null,
      "2013-06-03",
      null,
      15.0,
      null,
      null,
      null,
      "2013-06-03T00:00:00",
      54.0,
      "mg",
      "MILD",
      "POSSIBLE",
      "Y",
      1,
      null,
      "1146",
      "2013-05-20",
      "2013-06-30",
      "2013-05-20",
      "2013-06-26",
      null,
      "2013-07-15",
      null,
      null,
      "701",
      75.0,
      "YEARS",
      "F",
      "WHITE",
      "NOT HISPANIC OR LATINO",
      "Xan_Hi",
      "Xanomeline High Dose",
      "Xan_Hi",
      "Xanomeline High Dose",
      "USA",
      "2013-05-07",
      -13.0,
      "Xanomeline High Dose",
      "Xanomeline High Dose",
      "2013-05-20T00:00:00",
      "H",
      "2013-06-26T23:59:59",
      "H",
      38.0,
      null,
      "DISCONTINUED",
      null,
      "2013-05-20",
      null,
      null,
      null,
      null,
      null,
      null,
      "2013-06-30",
      "Y",
      "White",
      ">64",
      "NA",
      null,
      null,
      null,
      null
    ],
    [
      "CDISCPILOT01",
      "AE",
      "01-701-1146",
      5.0,
      "E12",
      "APPLICATION SITE ERYTHEMA",
      "APPLICATION SITE ERYTHEMA",
      null,
      "APPLICATION SITE ERYTHEMA",
      null,
      "HLT_0617",
      null,
      "HLGT_0152",
      null,
      "GENERAL DISORDERS AND ADMINISTRATION SITE CONDITIONS",
      null,
      "GENERAL DISORDERS AND ADMINISTRATION SITE CONDITIONS",
      null,
      "MILD",
      "N",
      null,
      "PROBABLE",
      "NOT RECOVERED/NOT RESOLVED",
      "N",
      "N",
      "N",
      "N",
      "N",
      "N",
      "N",
      "2013-06-16",
      "2013-06-10",
      null,
      22.0,
      null,
      "2013-05-20",
      "2013-06-26",
      null,
      "2013-06-30",
      "2013-06-10T00:00:00",
      null,
      "H",
      null,
      null,
      null,
      "2013-06-10",
      null,
      22.0,
      null,
      null,
      null,
      "2013-06-03T00:00:00",
      null,
      null,
      "MILD",
      "PROBABLE",
      "Y",
      1,
      null,
      "1146",
      "2013-05-20",
      "2013-06-30",
      "2013-05-20",
      "2013-06-26",
      null,
      "2013-07-15",
      null,
      null,
      "701",
      75.0,
      "YEARS",
      "F",
      "WHITE",
      "NOT HISPANIC OR LATINO",
      "Xan_Hi",
      "Xanomeline High Dose",
      "Xan_Hi",
      "Xanomeline High Dose",
      "USA",
      "2013-05-07",
      -13.0,
      "Xanomeline High Dose",
      "Xanomeline High Dose",
      "2013-05-20T00:00:00",
      "H",
      "2013-06-26T23:59:59",
      "H",
      38.0,
      null,
      "DISCONTINUED",
      null,
      "2013-05-20",
      null,
      null,
      null,
      null,
      null,
      null,
      "2013-06-30",
      "Y",
      "White",
      ">64",
      "NA",
      null,
      null,
      null,
      null
    ],
    [
      "CDISCPILOT01",
      "AE",
      "01-701-1146",
      6.0,
      "E13",
      "APPLICATION SITE PRURITUS",
      "APPLICATION SITE ITCHING",
      null,
      "APPLICATION SITE PRURITUS",
      null,
      "HLT_0317",
      null,
      "HLGT_0338",
      null,
      "GENERAL DISORDERS AND ADMINISTRATION SITE CONDITIONS",
      null,
      "GENERAL DISORDERS AND ADMINISTRATION SITE CONDITIONS",
      null,
      "MILD",
      "N",
      null,
      "PROBABLE",
      "NOT RECOVERED/NOT RESOLVED",
      "N",
      "N",
      "N",
      "N",
      "N",
      "N",
      "N",
      "2013-06-16",
      "2013-06-10",
      null,
      22.0,
      null,
      "2013-05-20",
      "2013-06-26",
      null,
      "2013-06-30",
      "2013-06-10T00:00:00",
      null,
      "H",
      null,
      null,
      null,
      "2013-06-10",
      null,
      22.0,
      null,
      null,
      null,
      "2013-06-03T00:00:00",
      null,
      null,
      "MILD",
      "PROBABLE",
      "Y",
      1,
      null,
      "1146",
      "2013-05-20",
      "2013-06-30",
      "2013-05-20",
      "2013-06-26",
      null,
      "2013-07-15",
      null,
      null,
      "701",
      75.0,
      "YEARS",
      "F",
      "WHITE",
      "NOT HISPANIC OR LATINO",
      "Xan_Hi",
      "Xanomeline High Dose",
      "Xan_Hi",
      "Xanomeline High Dose",
      "USA",
      "2013-05-07",
      -13.0,
      "Xanomeline High Dose",
      "Xanomeline High Dose",
      "2013-05-20T00:00:00",
      "H",
      "2013-06-26T23:59:59",
      "H",
      38.0,
      null,
      "DISCONTINUED",
      null,
      "2013-05-20",
      null,
      null,
      null,
      null,
      null,
      null,
      "2013-06-30",
      "Y",
      "White",
      ">64",
      "NA",
      null,
      null,
      null,
      null
    ],
    [
      "CDISCPILOT01",
      "AE",
      "01-701-1148",
      3.0,
      "E23",
      "LOWER RESPIRATORY TRACT INFECTION",
      "CHEST COLD",
      null,
      "LOWER RESPIRATORY TRACT INFECTION",
      null,
      "HLT_0052",
      null,
      "HLGT_0217",
      null,
      "INFECTIONS AND INFESTATIONS",
      null,
      "INFECTIONS AND INFESTATIONS",
      null,
      "MODERATE",
      "N",
      null,
      "NONE",
      "NOT RECOVERED/NOT RESOLVED",
      "N",
      "N",
      "N",
      "N",
      "N",
      "N",
      "N",
      "2013-10-18",
      "2013-10-12",
      "2013-11-10",
      51.0,
      80.0,
      "2013-08-23",
      "2014-02-20",
      null,
      "2014-02-20",
      "2013-10-12T00:00:00",
      null,
      "H",
      "2013-11-10T23:59:59",
      null,
      "H",
      "2013-10-12",
      "2013-11-10",
      51.0,
      80.0,
      30.0,
      "days",
      "2013-09-05T00:00:00",
      null,
      null,
      "MODERATE",
      "NONE",
      "Y",
      2,
      "Y",
      "1148",
      "2013-08-23",
      "2014-02-20",
      "2013-08-23",
      "2014-02-20",
      null,
      "2014-02-20T15:07",
      null,
      null,
      "701",
      57.0,
      "YEARS",
      "M",
      "WHITE",
      "NOT HISPANIC OR LATINO",
      "Xan_Hi",
      "Xanomeline High Dose",
      "Xan_Hi",
      "Xanomeline High Dose",
      "USA",
      "2013-08-14",
      -9.0,
      "Xanomeline High Dose",
      "Xanomeline High Dose",
      "2013-08-23T00:00:00",
      "H",
      "2014-02-20T23:59:59",
      "H",
      182.0,
      null,
      "COMPLETED",
      null,
      "2013-08-23",
      null,
      null,
      null,
      null,
      null,
      null,
      "2014-02-20",
      "Y",
      "White",
      "18-64",
      "NA",
      null,
      null,
      null,
      null
    ],
    [
      "CDISCPILOT01",
      "AE",
      "01-701-1148",
      4.0,
      "E23",
      "LOWER RESPIRATORY TRACT INFECTION",
      "CHEST COLD",
      null,
      "LOWER RESPIRATORY TRACT INFECTION",
      null,
      "HLT_0052",
      null,
      "HLGT_0217",
      null,
      "INFECTIONS AND INFESTATIONS",
      null,
      "INFECTIONS AND INFESTATIONS",
      null,
      "MODERATE",
      "N",
      null,
      "NONE",
      "RECOVERED/RESOLVED",
      "N",
      "N",
      "N",
      "N",
      "N",
      "N",
      "N",
      "2013-11-17",
      "2013-10-12",
      "2013-11-10",
      51.0,
      80.0,
      "2013-08-23",
      "2014-02-20",
      null,
      "2014-02-20",
      "2013-10-12T00:00:00",
      null,
      "H",
      "2013-11-10T23:59:59",
      null,
      "H",
      "2013-10-12",
      "2013-11-10",
      51.0,
      80.0,
      30.0,
      "days",
      "2013-09-05T00:00:00",
      null,
      null,
      "MODERATE",
      "NONE",
      "Y",
      2,
      null,
      "1148",
      "2013-08-23",
      "2014-02-20",
      "2013-08-23",
      "2014-02-20",
      null,
      "2014-02-20T15:07",
      null,
      null,
      "701",
      57.0,
      "YEARS",
      "M",
      "WHITE",
      "NOT HISPANIC OR LATINO",
      "Xan_Hi",
      "Xanomeline High Dose",
      "Xan_Hi",
      "Xanomeline High Dose",
      "USA",
      "2013-08-14",
      -9.0,
      "Xanomeline High Dose",
      "Xanomeline High Dose",
      "2013-08-23T00:00:00",
      "H",
      "2014-02-20T23:59:59",
      "H",
      182.0,
      null,
      "COMPLETED",
      null,
      "2013-08-23",
      null,
      null,
      null,
      null,
      null,
      null,
      "2014-02-20",
      "Y",
      "White",
      "18-64",
      "NA",
      null,
      null,
      null,
      null
    ],
    [
      "CDISCPILOT01",
      "AE",
      "01-701-1148",
      5.0,
      "E24",
      "FLANK PAIN",
      "FLANK PAIN",
      null,
      "FLANK PAIN",
      null,
      "HLT_0484",
      null,
      "HLGT_0543",
      null,
      "MUSCULOSKELETAL AND CONNECTIVE TISSUE DISORDERS",
      null,
      "MUSCULOSKELETAL AND CONNECTIVE TISSUE DISORDERS",
      null,
      "MODERATE",
      "N",
      null,
      "NONE",
      "RECOVERED/RESOLVED",
      "N",
      "N",
      "N",
      "N",
      "N",
      "N",
      "N",
      "2014-01-10",
      "2013-12-15",
      "2013-12-17",
      115.0,
      117.0,
      "2013-08-23",
      "2014-02-20",
      null,
      "2014-02-20",
      "2013-12-15T00:00:00",
      null,
      "H",
      "2013-12-17T23:59:59",
      null,
      "H",
      "2013-12-15",
      "2013-12-17",
      115.0,
      117.0,
      3.0,
      "days",
      "2013-09-05T00:00:00",
      null,
      null,
      "MODERATE",
      "NONE",
      "Y",
      2,
      null,
      "1148",
      "2013-08-23",
      "2014-02-20",
      "2013-08-23",
      "2014-02-20",
      null,
      "2014-02-20T15:07",
      null,
      null,
      "701",
      57.0,
      "YEARS",
      "M",
      "WHITE",
      "NOT HISPANIC OR LATINO",
      "Xan_Hi",
      "Xanomeline High Dose",
      "Xan_Hi",
      "Xanomeline High Dose",
      "USA",
      "2013-08-14",
      -9.0,
      "Xanomeline High Dose",
      "Xanomeline High Dose",
      "2013-08-23T00:00:00",
      "H",
      "2014-02-20T23:59:59",
      "H",
      182.0,
      null,
      "COMPLETED",
      null,
      "2013-08-23",
      null,
      null,
      null,
      null,
      null,
      null,
      "2014-02-20",
      "Y",
      "White",
      "18-64",
      "NA",
      null,
      null,
      null,
      null
    ],
    [
      "CDISCPILOT01",
      "AE",
      "01-701-1148",
      6.0,
      "E25",
      "CALCULUS URETHRAL",
      "URETHRAL CALCULUS",
      null,
      "CALCULUS URETHRAL",
      null,
      "HLT_0550",
      null,
      "HLGT_0414",
      null,
      "RENAL AND URINARY DISORDERS",
      null,
      "RENAL AND URINARY DISORDERS",
      null,
      "MODERATE",
      "N",
      null,
      "NONE",
      "RECOVERED/RESOLVED",
      "N",
      "N",
      "N",
      "N",
      "N",
      "N",
      "N",
      "2014-01-10",
      "2013-12-17",
      "2013-12-17",
      117.0,
      117.0,
      "2013-08-23",
      "2014-02-20",
      null,
      "2014-02-20",
      "2013-12-17T00:00:00",
      null,
      "H",
      "2013-12-17T23:59:59",
      null,
      "H",
      "2013-12-17",
      "2013-12-17",
      117.0,
      117.0,
      1.0,
      "days",
      "2013-09-05T00:00:00",
      null,
      null,
      "MODERATE",
      "NONE",
      "Y",
      2,
      null,
      "1148",
      "2013-08-23",
      "2014-02-20",
      "2013-08-23",
      "2014-02-20",
      null,
      "2014-02-20T15:07",
      null,
      null,
      "701",
      57.0,
      "YEARS",
      "M",
      "WHITE",
      "NOT HISPANIC OR LATINO",
      "Xan_Hi",
      "Xanomeline High Dose",
      "Xan_Hi",
      "Xanomeline High Dose",
      "USA",
      "2013-08-14",
      -9.0,
      "Xanomeline High Dose",
      "Xanomeline High Dose",
      "2013-08-23T00:00:00",
      "H",
      "2014-02-20T23:59:59",
      "H",
      182.0,
      null,
      "COMPLETED",
      null,
      "2013-08-23",
      null,
      null,
      null,
      null,
      null,
      null,
      "2014-02-20",
      "Y",
      "White",
      "18-64",
      "NA",
      null,
      null,
      null,
      null
    ],
    [
      "CDISCPILOT01",
      "AE",
      "01-701-1148",
      1.0,
      "E20",
      "APPLICATION SITE ERYTHEMA",
      "APPLICATION SITE REDNESS",
      null,
      "APPLICATION SITE ERYTHEMA",
      null,
      "HLT_0617",
      null,
      "HLGT_0152",
      null,
      "GENERAL DISORDERS AND ADMINISTRATION SITE CONDITIONS",
      null,
      "GENERAL DISORDERS AND ADMINISTRATION SITE CONDITIONS",
      null,
      "MILD",
      "N",
      null,
      "PROBABLE",
      "NOT RECOVERED/NOT RESOLVED",
      "N",
      "N",
      "N",
      "N",
      "N",
      "N",
      "N",
      "2013-09-05",
      "2013-08-25",
      null,
      3.0,
      null,
      "2013-08-23",
      "2014-02-20",
      null,
      "2014-02-20",
      "2013-08-25T00:00:00",
      null,
      "H",
      null,
      null,
      null,
      "2013-08-25",
      null,
      3.0,
      null,
      null,
      null,
      "2013-08-25T00:00:00",
      54.0,
      "mg",
      "MILD",
      "PROBABLE",
      "Y",
      1,
      null,
      "1148",
      "2013-08-23",
      "2014-02-20",
      "2013-08-23",
      "2014-02-20",
      null,
      "2014-02-20T15:07",
      null,
      null,
      "701",
      57.0,
      "YEARS",
      "M",
      "WHITE",
      "NOT HISPANIC OR LATINO",
      "Xan_Hi",
      "Xanomeline High Dose",
      "Xan_Hi",
      "Xanomeline High Dose",
      "USA",
      "2013-08-14",
      -9.0,
      "Xanomeline High Dose",
      "Xanomeline High Dose",
      "2013-08-23T00:00:00",
      "H",
      "2014-02-20T23:59:59",
      "H",
      182.0,
      null,
      "COMPLETED",
      null,
      "2013-08-23",
      null,
      null,
      null,
      null,
      null,
      null,
      "2014-02-20",
      "Y",
      "White",
      "18-64",
      "NA",
      null,
      null,
      null,
      null
    ],
    [
      "CDISCPILOT01",
      "AE",
      "01-701-1148",
      2.0,
      "E21",
      "APPLICATION SITE PRURITUS",
      "APPLICATION SITE ITCHING",
      null,
      "APPLICATION SITE PRURITUS",
      null,
      "HLT_0317",
      null,
      "HLGT_0338",
      null,
      "GENERAL DISORDERS AND ADMINISTRATION SITE CONDITIONS",
      null,
      "GENERAL DISORDERS AND ADMINISTRATION SITE CONDITIONS",
      null,
      "MILD",
      "N",
      null,
      "PROBABLE",
      "NOT RECOVERED/NOT RESOLVED",
      "N",
      "N",
      "N",
      "N",
      "N",
      "N",
      "N",
      "2013-09-05",
      "2013-08-25",
      null,
      3.0,
      null,
      "2013-08-23",
      "2014-02-20",
      null,
      "2014-02-20",
      "2013-08-25T00:00:00",
      null,
      "H",
      null,
      null,
      null,
      "2013-08-25",
      null,
      3.0,
      null,
      null,
      null,
      "2013-08-25T00:00:00",
      54.0,
      "mg",
      "MILD",
      "PROBABLE",
      "Y",
      1,
      null,
      "1148",
      "2013-08-23",
      "2014-02-20",
      "2013-08-23",
      "2014-02-20",
      null,
      "2014-02-20T15:07",
      null,
      null,
      "701",
      57.0,
      "YEARS",
      "M",
      "WHITE",
      "NOT HISPANIC OR LATINO",
      "Xan_Hi",
      "Xanomeline High Dose",
      "Xan_Hi",
      "Xanomeline High Dose",
      "USA",
      "2013-08-14",
      -9.0,
      "Xanomeline High Dose",
      "Xanomeline High Dose",
      "2013-08-23T00:00:00",
      "H",
      "2014-02-20T23:59:59",
      "H",
      182.0,
      null,
      "COMPLETED",
      null,
      "2013-08-23",
      null,
      null,
      null,
      null,
      null,
      null,
      "2014-02-20",
      "Y",
      "White",
      "18-64",
      "NA",
      null,
      null,
      null,
      null
    ],
    [
      "CDISCPILOT01",
      "AE",
      "01-701-1148",
      7.0,
      "E28",
      "EPISTAXIS",
      "NOSE BLEED",
      null,
      "EPISTAXIS",
      null,
      "HLT_0386",
      null,
      "HLGT_0577",
      null,
      "RESPIRATORY, THORACIC AND MEDIASTINAL DISORDERS",
      null,
      "RESPIRATORY, THORACIC AND MEDIASTINAL DISORDERS",
      null,
      "MILD",
      "N",
      null,
      "NONE",
      "RECOVERED/RESOLVED",
      "N",
      "N",
      "N",
      "N",
      "N",
      "N",
      "N",
      "2014-01-10",
      "2014-01-03",
      "2014-01-03",
      134.0,
      134.0,
      "2013-08-23",
      "2014-02-20",
      null,
      "2014-02-20",
      "2014-01-03T00:00:00",
      null,
      "H",
      "2014-01-03T23:59:59",
      null,
      "H",
      "2014-01-03",
      "2014-01-03",
      134.0,
      134.0,
      1.0,
      "days",
      "2013-09-05T00:00:00",
      null,
      null,
      "MILD",
      "NONE",
      "Y",
      1,
      null,
      "1148",
      "2013-08-23",
      "2014-02-20",
      "2013-08-23",
      "2014-02-20",
      null,
      "2014-02-20T15:07",
      null,
      null,
      "701",
      57.0,
      "YEARS",
      "M",
      "WHITE",
      "NOT HISPANIC OR LATINO",
      "Xan_Hi",
      "Xanomeline High Dose",
      "Xan_Hi",
      "Xanomeline High Dose",
      "USA",
      "2013-08-14",
      -9.0,
      "Xanomeline High Dose",
      "Xanomeline High Dose",
      "2013-08-23T00:00:00",
      "H",
      "2014-02-20T23:59:59",
      "H",
      182.0,
      null,
      "COMPLETED",
      null,
      "2013-08-23",
      null,
      null,
      null,
      null,
      null,
      null,
      "2014-02-20",
      "Y",
      "White",
      "18-64",
      "NA",
      null,
      null,
      null,
      null
    ],
    [
      "CDISCPILOT01",
      "AE",
      "01-701-1148",
      10.0,
      "E27",
      "ACTINIC KERATOSIS",
      "ACTINIC KERATOSIS",
      null,
      "ACTINIC KERATOSIS",
      null,
      "HLT_0609",
      null,
      "HLGT_0490",
      null,
      "SKIN AND SUBCUTANEOUS TISSUE DISORDERS",
      null,
      "SKIN AND SUBCUTANEOUS TISSUE DISORDERS",
      null,
      "MILD",
      "N",
      null,
      "NONE",
      "NOT RECOVERED/NOT RESOLVED",
      "N",
      "N",
      "N",
      "N",
      "N",
      "N",
      "N",
      "2014-02-20",
      "2014-02-12",
      null,
      174.0,
      null,
      "2013-08-23",
      "2014-02-20",
      null,
      "2014-02-20",
      "2014-02-12T00:00:00",
      null,
      "H",
      null,
      null,
      null,
      "2014-02-12",
      null,
      174.0,
      null,
      null,
      null,
      "2014-02-12T00:00:00",
      54.0,
      "mg",
      "MILD",
      "NONE",
      "Y",
      1,
      null,
      "1148",
      "2013-08-23",
      "2014-02-20",
      "2013-08-23",
      "2014-02-20",
      null,
      "2014-02-20T15:07",
      null,
      null,
      "701",
      57.0,
      "YEARS",
      "M",
      "WHITE",
      "NOT HISPANIC OR LATINO",
      "Xan_Hi",
      "Xanomeline High Dose",
      "Xan_Hi",
      "Xanomeline High Dose",
      "USA",
      "2013-08-14",
      -9.0,
      "Xanomeline High Dose",
      "Xanomeline High Dose",
      "2013-08-23T00:00:00",
      "H",
      "2014-02-20T23:59:59",
      "H",
      182.0,
      null,
      "COMPLETED",
      null,
      "2013-08-23",
      null,
      null,
      null,
      null,
      null,
      null,
      "2014-02-20",
      "Y",
      "White",
      "18-64",
      "NA",
      null,
      null,
      null,
      null
    ],
    [
      "CDISCPILOT01",
      "AE",
      "01-701-1153",
      1.0,
      "E06",
      "INCREASED APPETITE",
      "INCREASED APPETITE",
      null,
      "INCREASED APPETITE",
      null,
      "HLT_0566",
      null,
      "HLGT_0769",
      null,
      "METABOLISM AND NUTRITION DISORDERS",
      null,
      "METABOLISM AND NUTRITION DISORDERS",
      null,
      "MILD",
      "N",
      null,
      "POSSIBLE",
      "NOT RECOVERED/NOT RESOLVED",
      "N",
      "N",
      "N",
      "N",
      "N",
      "N",
      "N",
      "2013-10-19",
      "2013-10-13",
      "2013-11-06",
      21.0,
      45.0,
      "2013-09-23",
      "2014-03-16",
      null,
      "2014-04-01",
      "2013-10-13T00:00:00",
      null,
      "H",
      "2013-11-06T23:59:59",
      null,
      "H",
      "2013-10-13",
      "2013-11-06",
      21.0,
      45.0,
      25.0,
      "days",
      "2013-10-13T00:00:00",
      0.0,
      "mg",
      "MILD",
      "POSSIBLE",
      "Y",
      1,
      "Y",
      "1153",
      "2013-09-23",
      "2014-04-01",
      "2013-09-23",
      "2014-03-16",
      null,
      "2014-04-01T14:25",
      null,
      null,
      "701",
      79.0,
      "YEARS",
      "F",
      "WHITE",
      "NOT HISPANIC OR LATINO",
      "Pbo",
      "Placebo",
      "Pbo",
      "Placebo",
      "USA",
      "2013-09-06",
      -17.0,
      "Placebo",
      "Placebo",
      "2013-09-23T00:00:00",
      "H",
      "2014-03-16T23:59:59",
      "H",
      175.0,
      null,
      "COMPLETED",
      null,
      "2013-09-23",
      null,
      null,
      null,
      null,
      null,
      null,
      "2014-04-01",
      "Y",
      "White",
      ">64",
      "NA",
      null,
      null,
      null,
      null
    ],
    [
      "CDISCPILOT01",
      "AE",
      "01-701-1153",
      2.0,
      "E06",
      "INCREASED APPETITE",
      "INCREASED APPETITE",
      null,
      "INCREASED APPETITE",
      null,
      "HLT_0566",
      null,
      "HLGT_0769",
      null,
      "METABOLISM AND NUTRITION DISORDERS",
      null,
      "METABOLISM AND NUTRITION DISORDERS",
      null,
      "MILD",
      "N",
      null,
      "POSSIBLE",
      "RECOVERED/RESOLVED",
      "N",
      "N",
      "N",
      "N",
      "N",
      "N",
      "N",
      "2013-11-18",
      "2013-10-13",
      "2013-11-06",
      21.0,
      45.0,
      "2013-09-23",
      "2014-03-16",
      null,
      "2014-04-01",
      "2013-10-13T00:00:00",
      null,
      "H",
      "2013-11-06T23:59:59",
      null,
      "H",
      "2013-10-13",
      "2013-11-06",
      21.0,
      45.0,
      25.0,
      "days",
      "2013-10-13T00:00:00",
      0.0,
      "mg",
      "MILD",
      "POSSIBLE",
      "Y",
      1,
      null,
      "1153",
      "2013-09-23",
      "2014-04-01",
      "2013-09-23",
      "2014-03-16",
      null,
      "2014-04-01T14:25",
      null,
      null,
      "701",
      79.0,
      "YEARS",
      "F",
      "WHITE",
      "NOT HISPANIC OR LATINO",
      "Pbo",
      "Placebo",
      "Pbo",
      "Placebo",
      "USA",
      "2013-09-06",
      -17.0,
      "Placebo",
      "Placebo",
      "2013-09-23T00:00:00",
      "H",
      "2014-03-16T23:59:59",
      "H",
      175.0,
      null,
      "COMPLETED",
      null,
      "2013-09-23",
      null,
      null,
      null,
      null,
      null,
      null,
      "2014-04-01",
      "Y",
      "White",
      ">64",
      "NA",
      null,
      null,
      null,
      null
    ],
    [
      "CDISCPILOT01",
      "AE",
      "01-701-1180",
      7.0,
      "E05",
      "APPLICATION SITE VESICLES",
      "APPLICATION SITE BLISTER",
      null,
      "APPLICATION SITE VESICLES",
      null,
      "HLT_0180",
      null,
      "HLGT_0576",
      null,
      "GENERAL DISORDERS AND ADMINISTRATION SITE CONDITIONS",
      null,
      "GENERAL DISORDERS AND ADMINISTRATION SITE CONDITIONS",
      null,
      "MODERATE",
      "N",
      null,
      "POSSIBLE",
      "NOT RECOVERED/NOT RESOLVED",
      "N",
      "N",
      "N",
      "N",
      "N",
      "N",
      "N",
      "2013-03-23",
      "2013-03-19",
      null,
      36.0,
      null,
      "2013-02-12",
      "2013-03-18",
      null,
      "2013-03-23",
      "2013-03-19T00:00:00",
      null,
      "H",
      null,
      null,
      null,
      "2013-03-19",
      null,
      36.0,
      null,
      null,
      null,
      "2013-02-25T00:00:00",
      null,
      null,
      "MODERATE",
      "POSSIBLE",
      "Y",
      2,
      "Y",
      "1180",
      "2013-02-12",
      "2013-03-23",
      "2013-02-12",
      "2013-03-18",
      null,
      "2013-04-07",
      null,
      null,
      "701",
      56.0,
      "YEARS",
      "M",
      "WHITE",
      "NOT HISPANIC OR LATINO",
      "Xan_Hi",
      "Xanomeline High Dose",
      "Xan_Hi",
      "Xanomeline High Dose",
      "USA",
      "2013-01-28",
      -15.0,
      "Xanomeline High Dose",
      "Xanomeline High Dose",
      "2013-02-12T00:00:00",
      "H",
      "2013-03-18T23:59:59",
      "H",
      35.0,
      null,
      "DISCONTINUED",
      null,
      "2013-02-12",
      null,
      null,
      null,
      null,
      null,
      null,
      "2013-03-23",
      "Y",
      "White",
      "18-64",
      "NA",
      null,
      null,
      null,
      null
    ],
    [
      "CDISCPILOT01",
      "AE",
      "01-701-1180",
      8.0,
      "E06",
      "APPLICATION SITE PRURITUS",
      "APPLICATION SITE ITCHING",
      null,
      "APPLICATION SITE PRURITUS",
      null,
      "HLT_0317",
      null,
      "HLGT_0338",
      null,
      "GENERAL DISORDERS AND ADMINISTRATION SITE CONDITIONS",
      null,
      "GENERAL DISORDERS AND ADMINISTRATION SITE CONDITIONS",
      null,
      "MODERATE",
      "N",
      null,
      "POSSIBLE",
      "NOT RECOVERED/NOT RESOLVED",
      "N",
      "N",
      "N",
      "N",
      "N",
      "N",
      "N",
      "2013-03-23",
      "2013-03-19",
      null,
      36.0,
      null,
      "2013-02-12",
      "2013-03-18",
      null,
      "2013-03-23",
      "2013-03-19T00:00:00",
      null,
      "H",
      null,
      null,
      null,
      "2013-03-19",
      null,
      36.0,
      null,
      null,
      null,
      "2013-02-25T00:00:00",
      null,
      null,
      "MODERATE",
      "POSSIBLE",
      "Y",
      2,
      null,
      "1180",
      "2013-02-12",
      "2013-03-23",
      "2013-02-12",
      "2013-03-18",
      null,
      "2013-04-07",
      null,
      null,
      "701",
      56.0,
      "YEARS",
      "M",
      "WHITE",
      "NOT HISPANIC OR LATINO",
      "Xan_Hi",
      "Xanomeline High Dose",
      "Xan_Hi",
      "Xanomeline High Dose",
      "USA",
      "2013-01-28",
      -15.0,
      "Xanomeline High Dose",
      "Xanomeline High Dose",
      "2013-02-12T00:00:00",
      "H",
      "2013-03-18T23:59:59",
      "H",
      35.0,
      null,
      "DISCONTINUED",
      null,
      "2013-02-12",
      null,
      null,
      null,
      null,
      null,
      null,
      "2013-03-23",
      "Y",
      "White",
      "18-64",
      "NA",
      null,
      null,
      null,
      null
    ],
    [
      "CDISCPILOT01",
      "AE",
      "01-701-1180",
      9.0,
      "E07",
      "APPLICATION SITE ERYTHEMA",
      "APPLICATION SITE ERYTHEMA",
      null,
      "APPLICATION SITE ERYTHEMA",
      null,
      "HLT_0617",
      null,
      "HLGT_0152",
      null,
      "GENERAL DISORDERS AND ADMINISTRATION SITE CONDITIONS",
      null,
      "GENERAL DISORDERS AND ADMINISTRATION SITE CONDITIONS",
      null,
      "MODERATE",
      "N",
      null,
      "POSSIBLE",
      "NOT RECOVERED/NOT RESOLVED",
      "N",
      "N",
      "N",
      "N",
      "N",
      "N",
      "N",
      "2013-03-23",
      "2013-03-19",
      null,
      36.0,
      null,
      "2013-02-12",
      "2013-03-18",
      null,
      "2013-03-23",
      "2013-03-19T00:00:00",
      null,
      "H",
      null,
      null,
      null,
      "2013-03-19",
      null,
      36.0,
      null,
      null,
      null,
      "2013-02-25T00:00:00",
      null,
      null,
      "MODERATE",
      "POSSIBLE",
      "Y",
      2,
      null,
      "1180",
      "2013-02-12",
      "2013-03-23",
      "2013-02-12",
      "2013-03-18",
      null,
      "2013-04-07",
      null,
      null,
      "701",
      56.0,
      "YEARS",
      "M",
      "WHITE",
      "NOT HISPANIC OR LATINO",
      "Xan_Hi",
      "Xanomeline High Dose",
      "Xan_Hi",
      "Xanomeline High Dose",
      "USA",
      "2013-01-28",
      -15.0,
      "Xanomeline High Dose",
      "Xanomeline High Dose",
      "2013-02-12T00:00:00",
      "H",
      "2013-03-18T23:59:59",
      "H",
      35.0,
      null,
      "DISCONTINUED",
      null,
      "2013-02-12",
      null,
      null,
      null,
      null,
      null,
      null,
      "2013-03-23",
      "Y",
      "White",
      "18-64",
      "NA",
      null,
      null,
      null,
      null
    ],
    [
      "CDISCPILOT01",
      "AE",
      "01-701-1180",
      1.0,
      "E01",
      "VOMITING",
      "VOMITING",
      null,
      "VOMITING",
      null,
      "HLT_0016",
      null,
      "HLGT_0350",
      null,
      "GASTROINTESTINAL DISORDERS",
      null,
      "GASTROINTESTINAL DISORDERS",
      null,
      "MILD",
      "N",
      null,
      "NONE",
      "NOT RECOVERED/NOT RESOLVED",
      "N",
      "N",
      "N",
      "N",
      "N",
      "N",
      "N",
      "2013-02-12",
      "2013-02-12",
      "2013-02-12",
      1.0,
      1.0,
      "2013-02-12",
      "2013-03-18",
      null,
      "2013-03-23",
      "2013-02-12T00:00:00",
      null,
      "H",
      "2013-02-12T23:59:59",
      null,
      "H",
      "2013-02-12",
      "2013-02-12",
      1.0,
      1.0,
      1.0,
      "days",
      "2013-02-12T00:00:00",
      54.0,
      "mg",
      "MILD",
      "NONE",
      "Y",
      1,
      null,
      "1180",
      "2013-02-12",
      "2013-03-23",
      "2013-02-12",
      "2013-03-18",
      null,
      "2013-04-07",
      null,
      null,
      "701",
      56.0,
      "YEARS",
      "M",
      "WHITE",
      "NOT HISPANIC OR LATINO",
      "Xan_Hi",
      "Xanomeline High Dose",
      "Xan_Hi",
      "Xanomeline High Dose",
      "USA",
      "2013-01-28",
      -15.0,
      "Xanomeline High Dose",
      "Xanomeline High Dose",
      "2013-02-12T00:00:00",
      "H",
      "2013-03-18T23:59:59",
      "H",
      35.0,
      null,
      "DISCONTINUED",
      null,
      "2013-02-12",
      null,
      null,
      null,
      null,
      null,
      null,
      "2013-03-23",
      "Y",
      "White",
      "18-64",
      "NA",
      null,
      null,
      null,
      null
    ],
    [
      "CDISCPILOT01",
      "AE",
      "01-701-1180",
      2.0,
      "E01",
      "VOMITING",
      "VOMITING",
      null,
      "VOMITING",
      null,
      "HLT_0016",
      null,
      "HLGT_0350",
      null,
      "GASTROINTESTINAL DISORDERS",
      null,
      "GASTROINTESTINAL DISORDERS",
      null,
      "MILD",
      "N",
      null,
      "NONE",
      "RECOVERED/RESOLVED",
      "N",
      "N",
      "N",
      "N",
      "N",
      "N",
      "N",
      "2013-02-25",
      "2013-02-12",
      "2013-02-12",
      1.0,
      1.0,
      "2013-02-12",
      "2013-03-18",
      null,
      "2013-03-23",
      "2013-02-12T00:00:00",
      null,
      "H",
      "2013-02-12T23:59:59",
      null,
      "H",
      "2013-02-12",
      "2013-02-12",
      1.0,
      1.0,
      1.0,
      "days",
      "2013-02-12T00:00:00",
      54.0,
      "mg",
      "MILD",
      "NONE",
      "Y",
      1,
      null,
      "1180",
      "2013-02-12",
      "2013-03-23",
      "2013-02-12",
      "2013-03-18",
      null,
      "2013-04-07",
      null,
      null,
      "701",
      56.0,
      "YEARS",
      "M",
      "WHITE",
      "NOT HISPANIC OR LATINO",
      "Xan_Hi",
      "Xanomeline High Dose",
      "Xan_Hi",
      "Xanomeline High Dose",
      "USA",
      "2013-01-28",
      -15.0,
      "Xanomeline High Dose",
      "Xanomeline High Dose",
      "2013-02-12T00:00:00",
      "H",
      "2013-03-18T23:59:59",
      "H",
      35.0,
      null,
      "DISCONTINUED",
      null,
      "2013-02-12",
      null,
      null,
      null,
      null,
      null,
      null,
      "2013-03-23",
      "Y",
      "White",
      "18-64",
      "NA",
      null,
      null,
      null,
      null
    ],
    [
      "CDISCPILOT01",
      "AE",
      "01-701-1180",
      3.0,
      "E02",
      "MICTURITION URGENCY",
      "URINARY URGENCY",
      null,
      "MICTURITION URGENCY",
      null,
      "HLT_0294",
      null,
      "HLGT_0483",
      null,
      "RENAL AND URINARY DISORDERS",
      null,
      "RENAL AND URINARY DISORDERS",
      null,
      "MILD",
      "N",
      null,
      "POSSIBLE",
      "NOT RECOVERED/NOT RESOLVED",
      "N",
      "N",
      "N",
      "N",
      "N",
      "N",
      "N",
      "2013-02-25",
      "2013-02-15",
      "2013-03-19",
      4.0,
      36.0,
      "2013-02-12",
      "2013-03-18",
      null,
      "2013-03-23",
      "2013-02-15T00:00:00",
      null,
      "H",
      "2013-03-19T23:59:59",
      null,
      "H",
      "2013-02-15",
      "2013-03-19",
      4.0,
      36.0,
      33.0,
      "days",
      "2013-02-15T00:00:00",
      54.0,
      "mg",
      "MILD",
      "POSSIBLE",
      "Y",
      1,
      null,
      "1180",
      "2013-02-12",
      "2013-03-23",
      "2013-02-12",
      "2013-03-18",
      null,
      "2013-04-07",
      null,
      null,
      "701",
      56.0,
      "YEARS",
      "M",
      "WHITE",
      "NOT HISPANIC OR LATINO",
      "Xan_Hi",
      "Xanomeline High Dose",
      "Xan_Hi",
      "Xanomeline High Dose",
      "USA",
      "2013-01-28",
      -15.0,
      "Xanomeline High Dose",
      "Xanomeline High Dose",
      "2013-02-12T00:00:00",
      "H",
      "2013-03-18T23:59:59",
      "H",
      35.0,
      null,
      "DISCONTINUED",
      null,
      "2013-02-12",
      null,
      null,
      null,
      null,
      null,
      null,
      "2013-03-23",
      "Y",
      "White",
      "18-64",
      "NA",
      null,
      null,
      null,
      null
    ],
    [
      "CDISCPILOT01",
      "AE",
      "01-701-1180",
      6.0,
      "E02",
      "MICTURITION URGENCY",
      "URINARY URGENCY",
      null,
      "MICTURITION URGENCY",
      null,
      "HLT_0294",
      null,
      "HLGT_0483",
      null,
      "RENAL AND URINARY DISORDERS",
      null,
      "RENAL AND URINARY DISORDERS",
      null,
      "MILD",
      "N",
      null,
      "POSSIBLE",
      "RECOVERED/RESOLVED",
      "N",
      "N",
      "N",
      "N",
      "N",
      "N",
      "N",
      "2013-03-23",
      "2013-02-15",
      "2013-03-19",
      4.0,
      36.0,
      "2013-02-12",
      "2013-03-18",
      null,
      "2013-03-23",
      "2013-02-15T00:00:00",
      null,
      "H",
      "2013-03-19T23:59:59",
      null,
      "H",
      "2013-02-15",
      "2013-03-19",
      4.0,
      36.0,
      33.0,
      "days",
      "2013-02-15T00:00:00",
      54.0,
      "mg",
      "MILD",
      "POSSIBLE",
      "Y",
      1,
      null,
      "1180",
      "2013-02-12",
      "2013-03-23",
      "2013-02-12",
      "2013-03-18",
      null,
      "2013-04-07",
      null,
      null,
      "701",
      56.0,
      "YEARS",
      "M",
      "WHITE",
      "NOT HISPANIC OR LATINO",
      "Xan_Hi",
      "Xanomeline High Dose",
      "Xan_Hi",
      "Xanomeline High Dose",
      "USA",
      "2013-01-28",
      -15.0,
      "Xanomeline High Dose",
      "Xanomeline High Dose",
      "2013-02-12T00:00:00",
      "H",
      "2013-03-18T23:59:59",
      "H",
      35.0,
      null,
      "DISCONTINUED",
      null,
      "2013-02-12",
      null,
      null,
      null,
      null,
      null,
      null,
      "2013-03-23",
      "Y",
      "White",
      "18-64",
      "NA",
      null,
      null,
      null,
      null
    ],
    [
      "CDISCPILOT01",
      "AE",
      "01-701-1180",
      5.0,
      "E03",
      "NASOPHARYNGITIS",
      "COLD",
      null,
      "NASOPHARYNGITIS",
      null,
      "HLT_0036",
      null,
      "HLGT_0709",
      null,
      "INFECTIONS AND INFESTATIONS",
      null,
      "INFECTIONS AND INFESTATIONS",
      null,
      "MILD",
      "N",
      null,
      "NONE",
      "RECOVERED/RESOLVED",
      "N",
      "N",
      "N",
      "N",
      "N",
      "N",
      "N",
      "2013-03-11",
      "2013-03-06",
      "2013-03-07",
      23.0,
      24.0,
      "2013-02-12",
      "2013-03-18",
      null,
      "2013-03-23",
      "2013-03-06T00:00:00",
      null,
      "H",
      "2013-03-07T23:59:59",
      null,
      "H",
      "2013-03-06",
      "2013-03-07",
      23.0,
      24.0,
      2.0,
      "days",
      "2013-02-25T00:00:00",
      null,
      null,
      "MILD",
      "NONE",
      "Y",
      1,
      null,
      "1180",
      "2013-02-12",
      "2013-03-23",
      "2013-02-12",
      "2013-03-18",
      null,
      "2013-04-07",
      null,
      null,
      "701",
      56.0,
      "YEARS",
      "M",
      "WHITE",
      "NOT HISPANIC OR LATINO",
      "Xan_Hi",
      "Xanomeline High Dose",
      "Xan_Hi",
      "Xanomeline High Dose",
      "USA",
      "2013-01-28",
      -15.0,
      "Xanomeline High Dose",
      "Xanomeline High Dose",
      "2013-02-12T00:00:00",
      "H",
      "2013-03-18T23:59:59",
      "H",
      35.0,
      null,
      "DISCONTINUED",
      null,
      "2013-02-12",
      null,
      null,
      null,
      null,
      null,
      null,
      "2013-03-23",
      "Y",
      "White",
      "18-64",
      "NA",
      null,
      null,
      null,
      null
    ],
    [
      "CDISCPILOT01",
      "AE",
      "01-701-1181",
      1.0,
      "E16",
      "AGITATION",
      "AGITATION",
      null,
      "AGITATION",
      null,
      "HLT_0140",
      null,
      "HLGT_0170",
      null,
      "PSYCHIATRIC DISORDERS",
      null,
      "PSYCHIATRIC DISORDERS",
      null,
      "MODERATE",
      "N",
      null,
      "NONE",
      "RECOVERED/RESOLVED",
      "N",
      "N",
      "N",
      "N",
      "N",
      "N",
      "N",
      "2013-12-12",
      "2013-12-09",
      "2013-12-09",
      5.0,
      5.0,
      "2013-12-05",
      "2013-12-09",
      null,
      "2013-12-12",
      "2013-12-09T00:00:00",
      null,
      "H",
      "2013-12-09T23:59:59",
      null,
      "H",
      "2013-12-09",
      "2013-12-09",
      5.0,
      5.0,
      1.0,
      "days",
      "2013-12-09T00:00:00",
      54.0,
      "mg",
      "MODERATE",
      "NONE",
      "Y",
      2,
      "Y",
      "1181",
      "2013-12-05",
      "2013-12-12",
      "2013-12-05",
      "2013-12-09",
      null,
      "2014-05-23",
      null,
      null,
      "701",
      79.0,
      "YEARS",
      "F",
      "WHITE",
      "NOT HISPANIC OR LATINO",
      "Xan_Hi",
      "Xanomeline High Dose",
      "Xan_Lo",
      "Xanomeline Low Dose",
      "USA",
      "2013-11-26",
      -9.0,
      "Xanomeline High Dose",
      "Xanomeline Low Dose",
      "2013-12-05T00:00:00",
      "H",
      "2013-12-09T23:59:59",
      "H",
      5.0,
      null,
      "DISCONTINUED",
      "2014-05-23",
      "2013-12-05",
      null,
      null,
      null,
      null,
      null,
      null,
      "2013-12-12",
      "Y",
      "White",
      ">64",
      "NA",
      null,
      null,
      null,
      null
    ],
    [
      "CDISCPILOT01",
      "AE",
      "01-701-1188",
      3.0,
      "E04",
      "ERYTHEMA",
      "ERYTHEMA",
      null,
      "ERYTHEMA",
      null,
      "HLT_0284",
      null,
      "HLGT_0192",
      null,
      "SKIN AND SUBCUTANEOUS TISSUE DISORDERS",
      null,
      "SKIN AND SUBCUTANEOUS TISSUE DISORDERS",
      null,
      "MODERATE",
      "N",
      null,
      "PROBABLE",
      "NOT RECOVERED/NOT RESOLVED",
      "N",
      "N",
      "N",
      "N",
      "N",
      "N",
      "N",
      "2013-03-16",
      "2013-02-16",
      null,
      2.0,
      null,
      "2013-02-15",
      "2013-03-24",
      null,
      "2013-03-25",
      "2013-02-16T00:00:00",
      null,
      "H",
      null,
      null,
      null,
      "2013-02-16",
      null,
      2.0,
      null,
      null,
      null,
      "2013-02-16T00:00:00",
      54.0,
      "mg",
      "MODERATE",
      "PROBABLE",
      "Y",
      2,
      "Y",
      "1188",
      "2013-02-15",
      "2013-03-25",
      "2013-02-15",
      "2013-03-24",
      null,
      "2013-08-04",
      null,
      null,
      "701",
      71.0,
      "YEARS",
      "M",
      "WHITE",
      "NOT HISPANIC OR LATINO",
      "Xan_Lo",
      "Xanomeline Low Dose",
      "Xan_Lo",
      "Xanomeline Low Dose",
      "USA",
      "2013-02-03",
      -12.0,
      "Xanomeline Low Dose",
      "Xanomeline Low Dose",
      "2013-02-15T00:00:00",
      "H",
      "2013-03-24T23:59:59",
      "H",
      38.0,
      null,
      "DISCONTINUED",
      "2013-08-04",
      "2013-02-15",
      null,
      null,
      null,
      null,
      null,
      null,
      "2013-03-25",
      "Y",
      "White",
      ">64",
      "NA",
      null,
      null,
      null,
      null
    ],
    [
      "CDISCPILOT01",
      "AE",
      "01-701-1188",
      4.0,
      "E05",
      "PRURITUS",
      "ITCHING",
      null,
      "PRURITUS",
      null,
      "HLT_0778",
      null,
      "HLGT_0695",
      null,
      "SKIN AND SUBCUTANEOUS TISSUE DISORDERS",
      null,
      "SKIN AND SUBCUTANEOUS TISSUE DISORDERS",
      null,
      "MODERATE",
      "N",
      null,
      "PROBABLE",
      "NOT RECOVERED/NOT RESOLVED",
      "N",
      "N",
      "N",
      "N",
      "N",
      "N",
      "N",
      "2013-03-16",
      "2013-02-16",
      null,
      2.0,
      null,
      "2013-02-15",
      "2013-03-24",
      null,
      "2013-03-25",
      "2013-02-16T00:00:00",
      null,
      "H",
      null,
      null,
      null,
      "2013-02-16",
      null,
      2.0,
      null,
      null,
      null,
      "2013-02-16T00:00:00",
      54.0,
      "mg",
      "MODERATE",
      "PROBABLE",
      "Y",
      2,
      null,
      "1188",
      "2013-02-15",
      "2013-03-25",
      "2013-02-15",
      "2013-03-24",
      null,
      "2013-08-04",
      null,
      null,
      "701",
      71.0,
      "YEARS",
      "M",
      "WHITE",
      "NOT HISPANIC OR LATINO",
      "Xan_Lo",
      "Xanomeline Low Dose",
      "Xan_Lo",
      "Xanomeline Low Dose",
      "USA",
      "2013-02-03",
      -12.0,
      "Xanomeline Low Dose",
      "Xanomeline Low Dose",
      "2013-02-15T00:00:00",
      "H",
      "2013-03-24T23:59:59",
      "H",
      38.0,
      null,
      "DISCONTINUED",
      "2013-08-04",
      "2013-02-15",
      null,
      null,
      null,
      null,
      null,
      null,
      "2013-03-25",
      "Y",
      "White",
      ">64",
      "NA",
      null,
      null,
      null,
      null
    ],
    [
      "CDISCPILOT01",
      "AE",
      "01-701-1188",
      6.0,
      "E06",
      "URTICARIA",
      "WELTS",
      null,
      "URTICARIA",
      null,
      "HLT_0420",
      null,
      "HLGT_0705",
      null,
      "SKIN AND SUBCUTANEOUS TISSUE DISORDERS",
      null,
      "SKIN AND SUBCUTANEOUS TISSUE DISORDERS",
      null,
      "MODERATE",
      "N",
      null,
      "PROBABLE",
      "NOT RECOVERED/NOT RESOLVED",
      "N",
      "N",
      "N",
      "N",
      "N",
      "N",
      "N",
      "2013-03-25",
      "2013-03-04",
      null,
      18.0,
      null,
      "2013-02-15",
      "2013-03-24",
      null,
      "2013-03-25",
      "2013-03-04T00:00:00",
      null,
      "H",
      null,
      null,
      null,
      "2013-03-04",
      null,
      18.0,
      null,
      null,
      null,
      "2013-03-04T00:00:00",
      54.0,
      "mg",
      "MODERATE",
      "PROBABLE",
      "Y",
      2,
      null,
      "1188",
      "2013-02-15",
      "2013-03-25",
      "2013-02-15",
      "2013-03-24",
      null,
      "2013-08-04",
      null,
      null,
      "701",
      71.0,
      "YEARS",
      "M",
      "WHITE",
      "NOT HISPANIC OR LATINO",
      "Xan_Lo",
      "Xanomeline Low Dose",
      "Xan_Lo",
      "Xanomeline Low Dose",
      "USA",
      "2013-02-03",
      -12.0,
      "Xanomeline Low Dose",
      "Xanomeline Low Dose",
      "2013-02-15T00:00:00",
      "H",
      "2013-03-24T23:59:59",
      "H",
      38.0,
      null,
      "DISCONTINUED",
      "2013-08-04",
      "2013-02-15",
      null,
      null,
      null,
      null,
      null,
      null,
      "2013-03-25",
      "Y",
      "White",
      ">64",
      "NA",
      null,
      null,
      null,
      null
    ],
    [
      "CDISCPILOT01",
      "AE",
      "01-701-1188",
      1.0,
      "E04",
      "ERYTHEMA",
      "ERYTHEMA",
      null,
      "ERYTHEMA",
      null,
      "HLT_0284",
      null,
      "HLGT_0192",
      null,
      "SKIN AND SUBCUTANEOUS TISSUE DISORDERS",
      null,
      "SKIN AND SUBCUTANEOUS TISSUE DISORDERS",
      null,
      "MILD",
      "N",
      null,
      "PROBABLE",
      "NOT RECOVERED/NOT RESOLVED",
      "N",
      "N",
      "N",
      "N",
      "N",
      "N",
      "N",
      "2013-03-02",
      "2013-02-16",
      null,
      2.0,
      null,
      "2013-02-15",
      "2013-03-24",
      null,
      "2013-03-25",
      "2013-02-16T00:00:00",
      null,
      "H",
      null,
      null,
      null,
      "2013-02-16",
      null,
      2.0,
      null,
      null,
      null,
      "2013-02-16T00:00:00",
      54.0,
      "mg",
      "MILD",
      "PROBABLE",
      "Y",
      1,
      null,
      "1188",
      "2013-02-15",
      "2013-03-25",
      "2013-02-15",
      "2013-03-24",
      null,
      "2013-08-04",
      null,
      null,
      "701",
      71.0,
      "YEARS",
      "M",
      "WHITE",
      "NOT HISPANIC OR LATINO",
      "Xan_Lo",
      "Xanomeline Low Dose",
      "Xan_Lo",
      "Xanomeline Low Dose",
      "USA",
      "2013-02-03",
      -12.0,
      "Xanomeline Low Dose",
      "Xanomeline Low Dose",
      "2013-02-15T00:00:00",
      "H",
      "2013-03-24T23:59:59",
      "H",
      38.0,
      null,
      "DISCONTINUED",
      "2013-08-04",
      "2013-02-15",
      null,
      null,
      null,
      null,
      null,
      null,
      "2013-03-25",
      "Y",
      "White",
      ">64",
      "NA",
      null,
      null,
      null,
      null
    ],
    [
      "CDISCPILOT01",
      "AE",
      "01-701-1188",
      2.0,
      "E05",
      "PRURITUS",
      "ITCHING",
      null,
      "PRURITUS",
      null,
      "HLT_0778",
      null,
      "HLGT_0695",
      null,
      "SKIN AND SUBCUTANEOUS TISSUE DISORDERS",
      null,
      "SKIN AND SUBCUTANEOUS TISSUE DISORDERS",
      null,
      "MILD",
      "N",
      null,
      "PROBABLE",
      "NOT RECOVERED/NOT RESOLVED",
      "N",
      "N",
      "N",
      "N",
      "N",
      "N",
      "N",
      "2013-03-02",
      "2013-02-16",
      null,
      2.0,
      null,
      "2013-02-15",
      "2013-03-24",
      null,
      "2013-03-25",
      "2013-02-16T00:00:00",
      null,
      "H",
      null,
      null,
      null,
      "2013-02-16",
      null,
      2.0,
      null,
      null,
      null,
      "2013-02-16T00:00:00",
      54.0,
      "mg",
      "MILD",
      "PROBABLE",
      "Y",
      1,
      null,
      "1188",
      "2013-02-15",
      "2013-03-25",
      "2013-02-15",
      "2013-03-24",
      null,
      "2013-08-04",
      null,
      null,
      "701",
      71.0,
      "YEARS",
      "M",
      "WHITE",
      "NOT HISPANIC OR LATINO",
      "Xan_Lo",
      "Xanomeline Low Dose",
      "Xan_Lo",
      "Xanomeline Low Dose",
      "USA",
      "2013-02-03",
      -12.0,
      "Xanomeline Low Dose",
      "Xanomeline Low Dose",
      "2013-02-15T00:00:00",
      "H",
      "2013-03-24T23:59:59",
      "H",
      38.0,
      null,
      "DISCONTINUED",
      "2013-08-04",
      "2013-02-15",
      null,
      null,
      null,
      null,
      null,
      null,
      "2013-03-25",
      "Y",
      "White",
      ">64",
      "NA",
      null,
      null,
      null,
      null
    ],
    [
      "CDISCPILOT01",
      "AE",
      "01-701-1188",
      5.0,
      "E06",
      "URTICARIA",
      "WELTS",
      null,
      "URTICARIA",
      null,
      "HLT_0420",
      null,
      "HLGT_0705",
      null,
      "SKIN AND SUBCUTANEOUS TISSUE DISORDERS",
      null,
      "SKIN AND SUBCUTANEOUS TISSUE DISORDERS",
      null,
      "MILD",
      "N",
      null,
      "PROBABLE",
      "NOT RECOVERED/NOT RESOLVED",
      "N",
      "N",
      "N",
      "N",
      "N",
      "N",
      "N",
      "2013-03-16",
      "2013-03-04",
      null,
      18.0,
      null,
      "2013-02-15",
      "2013-03-24",
      null,
      "2013-03-25",
      "2013-03-04T00:00:00",
      null,
      "H",
      null,
      null,
      null,
      "2013-03-04",
      null,
      18.0,
      null,
      null,
      null,
      "2013-03-04T00:00:00",
      54.0,
      "mg",
      "MILD",
      "PROBABLE",
      "Y",
      1,
      null,
      "1188",
      "2013-02-15",
      "2013-03-25",
      "2013-02-15",
      "2013-03-24",
      null,
      "2013-08-04",
      null,
      null,
      "701",
      71.0,
      "YEARS",
      "M",
      "WHITE",
      "NOT HISPANIC OR LATINO",
      "Xan_Lo",
      "Xanomeline Low Dose",
      "Xan_Lo",
      "Xanomeline Low Dose",
      "USA",
      "2013-02-03",
      -12.0,
      "Xanomeline Low Dose",
      "Xanomeline Low Dose",
      "2013-02-15T00:00:00",
      "H",
      "2013-03-24T23:59:59",
      "H",
      38.0,
      null,
      "DISCONTINUED",
      "2013-08-04",
      "2013-02-15",
      null,
      null,
      null,
      null,
      null,
      null,
      "2013-03-25",
      "Y",
      "White",
      ">64",
      "NA",
      null,
      null,
      null,
      null
    ],
    [
      "CDISCPILOT01",
      "AE",
      "01-701-1188",
      7.0,
      "E09",
      "APPLICATION SITE URTICARIA",
      "APPLICATION SITE URTICARIA",
      null,
      "APPLICATION SITE URTICARIA",
      null,
      "HLT_0196",
      null,
      "HLGT_0233",
      null,
      "GENERAL DISORDERS AND ADMINISTRATION SITE CONDITIONS",
      null,
      "GENERAL DISORDERS AND ADMINISTRATION SITE CONDITIONS",
      null,
      "MILD",
      "N",
      null,
      "PROBABLE",
      "NOT RECOVERED/NOT RESOLVED",
      "N",
      "N",
      "N",
      "N",
      "N",
      "N",
      "N",
      "2013-03-25",
      "2013-03-21",
      null,
      35.0,
      null,
      "2013-02-15",
      "2013-03-24",
      null,
      "2013-03-25",
      "2013-03-21T00:00:00",
      null,
      "H",
      null,
      null,
      null,
      "2013-03-21",
      null,
      35.0,
      null,
      null,
      null,
      "2013-03-21T00:00:00",
      54.0,
      "mg",
      "MILD",
      "PROBABLE",
      "Y",
      1,
      null,
      "1188",
      "2013-02-15",
      "2013-03-25",
      "2013-02-15",
      "2013-03-24",
      null,
      "2013-08-04",
      null,
      null,
      "701",
      71.0,
      "YEARS",
      "M",
      "WHITE",
      "NOT HISPANIC OR LATINO",
      "Xan_Lo",
      "Xanomeline Low Dose",
      "Xan_Lo",
      "Xanomeline Low Dose",
      "USA",
      "2013-02-03",
      -12.0,
      "Xanomeline Low Dose",
      "Xanomeline Low Dose",
      "2013-02-15T00:00:00",
      "H",
      "2013-03-24T23:59:59",
      "H",
      38.0,
      null,
      "DISCONTINUED",
      "2013-08-04",
      "2013-02-15",
      null,
      null,
      null,
      null,
      null,
      null,
      "2013-03-25",
      "Y",
      "White",
      ">64",
      "NA",
      null,
      null,
      null,
      null
    ],
    [
      "CDISCPILOT01",
      "AE",
      "01-701-1188",
      8.0,
      "E10",
      "URTICARIA",
      "WELTS",
      null,
      "URTICARIA",
      null,
      "HLT_0420",
      null,
      "HLGT_0705",
      null,
      "SKIN AND SUBCUTANEOUS TISSUE DISORDERS",
      null,
      "SKIN AND SUBCUTANEOUS TISSUE DISORDERS",
      null,
      "MILD",
      "N",
      null,
      "PROBABLE",
      "NOT RECOVERED/NOT RESOLVED",
      "N",
      "N",
      "N",
      "N",
      "N",
      "N",
      "N",
      "2013-03-25",
      "2013-03-21",
      null,
      35.0,
      null,
      "2013-02-15",
      "2013-03-24",
      null,
      "2013-03-25",
      "2013-03-21T00:00:00",
      null,
      "H",
      null,
      null,
      null,
      "2013-03-21",
      null,
      35.0,
      null,
      null,
      null,
      "2013-03-21T00:00:00",
      54.0,
      "mg",
      "MILD",
      "PROBABLE",
      "Y",
      1,
      null,
      "1188",
      "2013-02-15",
      "2013-03-25",
      "2013-02-15",
      "2013-03-24",
      null,
      "2013-08-04",
      null,
      null,
      "701",
      71.0,
      "YEARS",
      "M",
      "WHITE",
      "NOT HISPANIC OR LATINO",
      "Xan_Lo",
      "Xanomeline Low Dose",
      "Xan_Lo",
      "Xanomeline Low Dose",
      "USA",
      "2013-02-03",
      -12.0,
      "Xanomeline Low Dose",
      "Xanomeline Low Dose",
      "2013-02-15T00:00:00",
      "H",
      "2013-03-24T23:59:59",
      "H",
      38.0,
      null,
      "DISCONTINUED",
      "2013-08-04",
      "2013-02-15",
      null,
      null,
      null,
      null,
      null,
      null,
      "2013-03-25",
      "Y",
      "White",
      ">64",
      "NA",
      null,
      null,
      null,
      null
    ],
    [
      "CDISCPILOT01",
      "AE",
      "01-701-1192",
      7.0,
      "E10",
      "PNEUMONIA",
      "PNEUMONIA",
      null,
      "PNEUMONIA",
      null,
      "HLT_0251",
      null,
      "HLGT_0671",
      null,
      "INFECTIONS AND INFESTATIONS",
      null,
      "INFECTIONS AND INFESTATIONS",
      null,
      "MODERATE",
      "N",
      null,
      "NONE",
      "NOT RECOVERED/NOT RESOLVED",
      "N",
      "N",
      "N",
      "N",
      "Y",
      "N",
      "N",
      "2012-09-23",
      "2012-09-07",
      "2012-10-06",
      48.0,
      77.0,
      "2012-07-22",
      "2013-01-20",
      null,
      "2013-01-20",
      "2012-09-07T00:00:00",
      null,
      "H",
      "2012-10-06T23:59:59",
      null,
      "H",
      "2012-09-07",
      "2012-10-06",
      48.0,
      77.0,
      30.0,
      "days",
      "2012-09-07T00:00:00",
      54.0,
      "mg",
      "MODERATE",
      "NONE",
      "Y",
      2,
      "Y",
      "1192",
      "2012-07-22",
      "2013-01-20",
      "2012-07-22",
      "2013-01-20",
      null,
      "2013-01-20T15:47",
      null,
      null,
      "701",
      80.0,
      "YEARS",
      "F",
      "WHITE",
      "NOT HISPANIC OR LATINO",
      "Xan_Lo",
      "Xanomeline Low Dose",
      "Xan_Lo",
      "Xanomeline Low Dose",
      "USA",
      "2012-07-08",
      -14.0,
      "Xanomeline Low Dose",
      "Xanomeline Low Dose",
      "2012-07-22T00:00:00",
      "H",
      "2013-01-20T23:59:59",
      "H",
      183.0,
      null,
      "COMPLETED",
      null,
      "2012-07-22",
      null,
      null,
      null,
      null,
      null,
      null,
      "2013-01-20",
      "Y",
      "White",
      ">64",
      "NA",
      null,
      null,
      null,
      null
    ],
    [
      "CDISCPILOT01",
      "AE",
      "01-701-1192",
      8.0,
      "E11",
      "MUSCULAR WEAKNESS",
      "MUSCULAR WEAKNESS",
      null,
      "MUSCULAR WEAKNESS",
      null,
      "HLT_0444",
      null,
      "HLGT_0211",
      null,
      "MUSCULOSKELETAL AND CONNECTIVE TISSUE DISORDERS",
      null,
      "MUSCULOSKELETAL AND CONNECTIVE TISSUE DISORDERS",
      null,
      "MODERATE",
      "N",
      null,
      "NONE",
      "NOT RECOVERED/NOT RESOLVED",
      "N",
      "N",
      "N",
      "N",
      "N",
      "N",
      "N",
      "2012-09-23",
      "2012-09-07",
      "2012-09-30",
      48.0,
      71.0,
      "2012-07-22",
      "2013-01-20",
      null,
      "2013-01-20",
      "2012-09-07T00:00:00",
      null,
      "H",
      "2012-09-30T23:59:59",
      null,
      "H",
      "2012-09-07",
      "2012-09-30",
      48.0,
      71.0,
      24.0,
      "days",
      "2012-09-07T00:00:00",
      54.0,
      "mg",
      "MODERATE",
      "NONE",
      "Y",
      2,
      null,
      "1192",
      "2012-07-22",
      "2013-01-20",
      "2012-07-22",
      "2013-01-20",
      null,
      "2013-01-20T15:47",
      null,
      null,
      "701",
      80.0,
      "YEARS",
      "F",
      "WHITE",
      "NOT HISPANIC OR LATINO",
      "Xan_Lo",
      "Xanomeline Low Dose",
      "Xan_Lo",
      "Xanomeline Low Dose",
      "USA",
      "2012-07-08",
      -14.0,
      "Xanomeline Low Dose",
      "Xanomeline Low Dose",
      "2012-07-22T00:00:00",
      "H",
      "2013-01-20T23:59:59",
      "H",
      183.0,
      null,
      "COMPLETED",
      null,
      "2012-07-22",
      null,
      null,
      null,
      null,
      null,
      null,
      "2013-01-20",
      "Y",
      "White",
      ">64",
      "NA",
      null,
      null,
      null,
      null
    ],
    [
      "CDISCPILOT01",
      "AE",
      "01-701-1192",
      10.0,
      "E10",
      "PNEUMONIA",
      "PNEUMONIA",
      null,
      "PNEUMONIA",
      null,
      "HLT_0251",
      null,
      "HLGT_0671",
      null,
      "INFECTIONS AND INFESTATIONS",
      null,
      "INFECTIONS AND INFESTATIONS",
      null,
      "MODERATE",
      "N",
      null,
      "NONE",
      "RECOVERED/RESOLVED",
      "N",
      "N",
      "N",
      "N",
      "Y",
      "N",
      "N",
      "2012-10-14",
      "2012-09-07",
      "2012-10-06",
      48.0,
      77.0,
      "2012-07-22",
      "2013-01-20",
      null,
      "2013-01-20",
      "2012-09-07T00:00:00",
      null,
      "H",
      "2012-10-06T23:59:59",
      null,
      "H",
      "2012-09-07",
      "2012-10-06",
      48.0,
      77.0,
      30.0,
      "days",
      "2012-09-07T00:00:00",
      54.0,
      "mg",
      "MODERATE",
      "NONE",
      "Y",
      2,
      null,
      "1192",
      "2012-07-22",
      "2013-01-20",
      "2012-07-22",
      "2013-01-20",
      null,
      "2013-01-20T15:47",
      null,
      null,
      "701",
      80.0,
      "YEARS",
      "F",
      "WHITE",
      "NOT HISPANIC OR LATINO",
      "Xan_Lo",
      "Xanomeline Low Dose",
      "Xan_Lo",
      "Xanomeline Low Dose",
      "USA",
      "2012-07-08",
      -14.0,
      "Xanomeline Low Dose",
      "Xanomeline Low Dose",
      "2012-07-22T00:00:00",
      "H",
      "2013-01-20T23:59:59",
      "H",
      183.0,
      null,
      "COMPLETED",
      null,
      "2012-07-22",
      null,
      null,
      null,
      null,
      null,
      null,
      "2013-01-20",
      "Y",
      "White",
      ">64",
      "NA",
      null,
      null,
      null,
      null
    ],
    [
      "CDISCPILOT01",
      "AE",
      "01-701-1192",
      11.0,
      "E11",
      "MUSCULAR WEAKNESS",
      "MUSCULAR WEAKNESS",
      null,
      "MUSCULAR WEAKNESS",
      null,
      "HLT_0444",
      null,
      "HLGT_0211",
      null,
      "MUSCULOSKELETAL AND CONNECTIVE TISSUE DISORDERS",
      null,
      "MUSCULOSKELETAL AND CONNECTIVE TISSUE DISORDERS",
      null,
      "MODERATE",
      "N",
      null,
      "NONE",
      "RECOVERED/RESOLVED",
      "N",
      "N",
      "N",
      "N",
      "N",
      "N",
      "N",
      "2012-10-14",
      "2012-09-07",
      "2012-09-30",
      48.0,
      71.0,
      "2012-07-22",
      "2013-01-20",
      null,
      "2013-01-20",
      "2012-09-07T00:00:00",
      null,
      "H",
      "2012-09-30T23:59:59",
      null,
      "H",
      "2012-09-07",
      "2012-09-30",
      48.0,
      71.0,
      24.0,
      "days",
      "2012-09-07T00:00:00",
      54.0,
      "mg",
      "MODERATE",
      "NONE",
      "Y",
      2,
      null,
      "1192",
      "2012-07-22",
      "2013-01-20",
      "2012-07-22",
      "2013-01-20",
      null,
      "2013-01-20T15:47",
      null,
      null,
      "701",
      80.0,
      "YEARS",
      "F",
      "WHITE",
      "NOT HISPANIC OR LATINO",
      "Xan_Lo",
      "Xanomeline Low Dose",
      "Xan_Lo",
      "Xanomeline Low Dose",
      "USA",
      "2012-07-08",
      -14.0,
      "Xanomeline Low Dose",
      "Xanomeline Low Dose",
      "2012-07-22T00:00:00",
      "H",
      "2013-01-20T23:59:59",
      "H",
      183.0,
      null,
      "COMPLETED",
      null,
      "2012-07-22",
      null,
      null,
      null,
      null,
      null,
      null,
      "2013-01-20",
      "Y",
      "White",
      ">64",
      "NA",
      null,
      null,
      null,
      null
    ],
    [
      "CDISCPILOT01",
      "AE",
      "01-701-1192",
      1.0,
      "E06",
      "NASAL MUCOSA BIOPSY",
      "NASAL MUCOSA BIOPSY",
      null,
      "NASAL MUCOSA BIOPSY",
      null,
      "HLT_0680",
      null,
      "HLGT_0396",
      null,
      "INVESTIGATIONS",
      null,
      "INVESTIGATIONS",
      null,
      "MILD",
      "N",
      null,
      "NONE",
      "RECOVERED/RESOLVED",
      "N",
      "N",
      "N",
      "N",
      "N",
      "N",
      "N",
      "2012-08-07",
      "2012-08-03",
      "2012-08-03",
      13.0,
      13.0,
      "2012-07-22",
      "2013-01-20",
      null,
      "2013-01-20",
      "2012-08-03T00:00:00",
      null,
      "H",
      "2012-08-03T23:59:59",
      null,
      "H",
      "2012-08-03",
      "2012-08-03",
      13.0,
      13.0,
      1.0,
      "days",
      "2012-08-03T00:00:00",
      54.0,
      "mg",
      "MILD",
      "NONE",
      "Y",
      1,
      null,
      "1192",
      "2012-07-22",
      "2013-01-20",
      "2012-07-22",
      "2013-01-20",
      null,
      "2013-01-20T15:47",
      null,
      null,
      "701",
      80.0,
      "YEARS",
      "F",
      "WHITE",
      "NOT HISPANIC OR LATINO",
      "Xan_Lo",
      "Xanomeline Low Dose",
      "Xan_Lo",
      "Xanomeline Low Dose",
      "USA",
      "2012-07-08",
      -14.0,
      "Xanomeline Low Dose",
      "Xanomeline Low Dose",
      "2012-07-22T00:00:00",
      "H",
      "2013-01-20T23:59:59",
      "H",
      183.0,
      null,
      "COMPLETED",
      null,
      "2012-07-22",
      null,
      null,
      null,
      null,
      null,
      null,
      "2013-01-20",
      "Y",
      "White",
      ">64",
      "NA",
      null,
      null,
      null,
      null
    ],
    [
      "CDISCPILOT01",
      "AE",
      "01-701-1192",
      2.0,
      "E08",
      "SECRETION DISCHARGE",
      "SECRETION DISCHARGE",
      null,
      "SECRETION DISCHARGE",
      null,
      "HLT_0683",
      null,
      "HLGT_0575",
      null,
      "GENERAL DISORDERS AND ADMINISTRATION SITE CONDITIONS",
      null,
      "GENERAL DISORDERS AND ADMINISTRATION SITE CONDITIONS",
      null,
      "MILD",
      "N",
      null,
      "NONE",
      "NOT RECOVERED/NOT RESOLVED",
      "N",
      "N",
      "N",
      "N",
      "N",
      "N",
      "N",
      "2012-08-07",
      "2012-08-07",
      "2012-09-14",
      17.0,
      55.0,
      "2012-07-22",
      "2013-01-20",
      null,
      "2013-01-20",
      "2012-08-07T00:00:00",
      null,
      "H",
      "2012-09-14T23:59:59",
      null,
      "H",
      "2012-08-07",
      "2012-09-14",
      17.0,
      55.0,
      39.0,
      "days",
      "2012-08-07T00:00:00",
      54.0,
      "mg",
      "MILD",
      "NONE",
      "Y",
      1,
      null,
      "1192",
      "2012-07-22",
      "2013-01-20",
      "2012-07-22",
      "2013-01-20",
      null,
      "2013-01-20T15:47",
      null,
      null,
      "701",
      80.0,
      "YEARS",
      "F",
      "WHITE",
      "NOT HISPANIC OR LATINO",
      "Xan_Lo",
      "Xanomeline Low Dose",
      "Xan_Lo",
      "Xanomeline Low Dose",
      "USA",
      "2012-07-08",
      -14.0,
      "Xanomeline Low Dose",
      "Xanomeline Low Dose",
      "2012-07-22T00:00:00",
      "H",
      "2013-01-20T23:59:59",
      "H",
      183.0,
      null,
      "COMPLETED",
      null,
      "2012-07-22",
      null,
      null,
      null,
      null,
      null,
      null,
      "2013-01-20",
      "Y",
      "White",
      ">64",
      "NA",
      null,
      null,
      null,
      null
    ],
    [
      "CDISCPILOT01",
      "AE",
      "01-701-1192",
      3.0,
      "E09",
      "ERYTHEMA",
      "ERYTHEMA FACIAL",
      null,
      "ERYTHEMA",
      null,
      "HLT_0284",
      null,
      "HLGT_0192",
      null,
      "SKIN AND SUBCUTANEOUS TISSUE DISORDERS",
      null,
      "SKIN AND SUBCUTANEOUS TISSUE DISORDERS",
      null,
      "MILD",
      "N",
      null,
      "NONE",
      "NOT RECOVERED/NOT RESOLVED",
      "N",
      "N",
      "N",
      "N",
      "N",
      "N",
      "N",
      "2012-08-07",
      "2012-08-07",
      "2012-09-14",
      17.0,
      55.0,
      "2012-07-22",
      "2013-01-20",
      null,
      "2013-01-20",
      "2012-08-07T00:00:00",
      null,
      "H",
      "2012-09-14T23:59:59",
      null,
      "H",
      "2012-08-07",
      "2012-09-14",
      17.0,
      55.0,
      39.0,
      "days",
      "2012-08-07T00:00:00",
      54.0,
      "mg",
      "MILD",
      "NONE",
      "Y",
      1,
      null,
      "1192",
      "2012-07-22",
      "2013-01-20",
      "2012-07-22",
      "2013-01-20",
      null,
      "2013-01-20T15:47",
      null,
      null,
      "701",
      80.0,
      "YEARS",
      "F",
      "WHITE",
      "NOT HISPANIC OR LATINO",
      "Xan_Lo",
      "Xanomeline Low Dose",
      "Xan_Lo",
      "Xanomeline Low Dose",
      "USA",
      "2012-07-08",
      -14.0,
      "Xanomeline Low Dose",
      "Xanomeline Low Dose",
      "2012-07-22T00:00:00",
      "H",
      "2013-01-20T23:59:59",
      "H",
      183.0,
      null,
      "COMPLETED",
      null,
      "2012-07-22",
      null,
      null,
      null,
      null,
      null,
      null,
      "2013-01-20",
      "Y",
      "White",
      ">64",
      "NA",
      null,
      null,
      null,
      null
    ],
    [
      "CDISCPILOT01",
      "AE",
      "01-701-1192",
      5.0,
      "E08",
      "SECRETION DISCHARGE",
      "SECRETION DISCHARGE",
      null,
      "SECRETION DISCHARGE",
      null,
      "HLT_0683",
      null,
      "HLGT_0575",
      null,
      "GENERAL DISORDERS AND ADMINISTRATION SITE CONDITIONS",
      null,
      "GENERAL DISORDERS AND ADMINISTRATION SITE CONDITIONS",
      null,
      "MILD",
      "N",
      null,
      "NONE",
      "RECOVERED/RESOLVED",
      "N",
      "N",
      "N",
      "N",
      "N",
      "N",
      "N",
      "2012-09-23",
      "2012-08-07",
      "2012-09-14",
      17.0,
      55.0,
      "2012-07-22",
      "2013-01-20",
      null,
      "2013-01-20",
      "2012-08-07T00:00:00",
      null,
      "H",
      "2012-09-14T23:59:59",
      null,
      "H",
      "2012-08-07",
      "2012-09-14",
      17.0,
      55.0,
      39.0,
      "days",
      "2012-08-07T00:00:00",
      54.0,
      "mg",
      "MILD",
      "NONE",
      "Y",
      1,
      null,
      "1192",
      "2012-07-22",
      "2013-01-20",
      "2012-07-22",
      "2013-01-20",
      null,
      "2013-01-20T15:47",
      null,
      null,
      "701",
      80.0,
      "YEARS",
      "F",
      "WHITE",
      "NOT HISPANIC OR LATINO",
      "Xan_Lo",
      "Xanomeline Low Dose",
      "Xan_Lo",
      "Xanomeline Low Dose",
      "USA",
      "2012-07-08",
      -14.0,
      "Xanomeline Low Dose",
      "Xanomeline Low Dose",
      "2012-07-22T00:00:00",
      "H",
      "2013-01-20T23:59:59",
      "H",
      183.0,
      null,
      "COMPLETED",
      null,
      "2012-07-22",
      null,
      null,
      null,
      null,
      null,
      null,
      "2013-01-20",
      "Y",
      "White",
      ">64",
      "NA",
      null,
      null,
      null,
      null
    ],
    [
      "CDISCPILOT01",
      "AE",
      "01-701-1192",
      6.0,
      "E09",
      "ERYTHEMA",
      "ERYTHEMA FACIAL",
      null,
      "ERYTHEMA",
      null,
      "HLT_0284",
      null,
      "HLGT_0192",
      null,
      "SKIN AND SUBCUTANEOUS TISSUE DISORDERS",
      null,
      "SKIN AND SUBCUTANEOUS TISSUE DISORDERS",
      null,
      "MILD",
      "N",
      null,
      "NONE",
      "RECOVERED/RESOLVED",
      "N",
      "N",
      "N",
      "N",
      "N",
      "N",
      "N",
      "2012-09-23",
      "2012-08-07",
      "2012-09-14",
      17.0,
      55.0,
      "2012-07-22",
      "2013-01-20",
      null,
      "2013-01-20",
      "2012-08-07T00:00:00",
      null,
      "H",
      "2012-09-14T23:59:59",
      null,
      "H",
      "2012-08-07",
      "2012-09-14",
      17.0,
      55.0,
      39.0,
      "days",
      "2012-08-07T00:00:00",
      54.0,
      "mg",
      "MILD",
      "NONE",
      "Y",
      1,
      null,
      "1192",
      "2012-07-22",
      "2013-01-20",
      "2012-07-22",
      "2013-01-20",
      null,
      "2013-01-20T15:47",
      null,
      null,
      "701",
      80.0,
      "YEARS",
      "F",
      "WHITE",
      "NOT HISPANIC OR LATINO",
      "Xan_Lo",
      "Xanomeline Low Dose",
      "Xan_Lo",
      "Xanomeline Low Dose",
      "USA",
      "2012-07-08",
      -14.0,
      "Xanomeline Low Dose",
      "Xanomeline Low Dose",
      "2012-07-22T00:00:00",
      "H",
      "2013-01-20T23:59:59",
      "H",
      183.0,
      null,
      "COMPLETED",
      null,
      "2012-07-22",
      null,
      null,
      null,
      null,
      null,
      null,
      "2013-01-20",
      "Y",
      "White",
      ">64",
      "NA",
      null,
      null,
      null,
      null
    ],
    [
      "CDISCPILOT01",
      "AE",
      "01-701-1192",
      12.0,
      "E12",
      "APPLICATION SITE IRRITATION",
      "APPLICATION SITE BURNING",
      null,
      "APPLICATION SITE IRRITATION",
      null,
      "HLT_0061",
      null,
      "HLGT_0346",
      null,
      "GENERAL DISORDERS AND ADMINISTRATION SITE CONDITIONS",
      null,
      "GENERAL DISORDERS AND ADMINISTRATION SITE CONDITIONS",
      null,
      "MILD",
      "N",
      null,
      "PROBABLE",
      "NOT RECOVERED/NOT RESOLVED",
      "N",
      "N",
      "N",
      "N",
      "N",
      "N",
      "N",
      "2012-12-13",
      "2012-12-05",
      "2012-12-16",
      137.0,
      148.0,
      "2012-07-22",
      "2013-01-20",
      null,
      "2013-01-20",
      "2012-12-05T00:00:00",
      null,
      "H",
      "2012-12-16T23:59:59",
      null,
      "H",
      "2012-12-05",
      "2012-12-16",
      137.0,
      148.0,
      12.0,
      "days",
      "2012-12-05T00:00:00",
      54.0,
      "mg",
      "MILD",
      "PROBABLE",
      "Y",
      1,
      null,
      "1192",
      "2012-07-22",
      "2013-01-20",
      "2012-07-22",
      "2013-01-20",
      null,
      "2013-01-20T15:47",
      null,
      null,
      "701",
      80.0,
      "YEARS",
      "F",
      "WHITE",
      "NOT HISPANIC OR LATINO",
      "Xan_Lo",
      "Xanomeline Low Dose",
      "Xan_Lo",
      "Xanomeline Low Dose",
      "USA",
      "2012-07-08",
      -14.0,
      "Xanomeline Low Dose",
      "Xanomeline Low Dose",
      "2012-07-22T00:00:00",
      "H",
      "2013-01-20T23:59:59",
      "H",
      183.0,
      null,
      "COMPLETED",
      null,
      "2012-07-22",
      null,
      null,
      null,
      null,
      null,
      null,
      "2013-01-20",
      "Y",
      "White",
      ">64",
      "NA",
      null,
      null,
      null,
      null
    ],
    [
      "CDISCPILOT01",
      "AE",
      "01-701-1192",
      13.0,
      "E13",
      "APPLICATION SITE ERYTHEMA",
      "APPLICATION SITE REDNESS",
      null,
      "APPLICATION SITE ERYTHEMA",
      null,
      "HLT_0617",
      null,
      "HLGT_0152",
      null,
      "GENERAL DISORDERS AND ADMINISTRATION SITE CONDITIONS",
      null,
      "GENERAL DISORDERS AND ADMINISTRATION SITE CONDITIONS",
      null,
      "MILD",
      "N",
      null,
      "PROBABLE",
      "NOT RECOVERED/NOT RESOLVED",
      "N",
      "N",
      "N",
      "N",
      "N",
      "N",
      "N",
      "2012-12-13",
      "2012-12-05",
      null,
      137.0,
      null,
      "2012-07-22",
      "2013-01-20",
      null,
      "2013-01-20",
      "2012-12-05T00:00:00",
      null,
      "H",
      null,
      null,
      null,
      "2012-12-05",
      null,
      137.0,
      null,
      null,
      null,
      "2012-12-05T00:00:00",
      54.0,
      "mg",
      "MILD",
      "PROBABLE",
      "Y",
      1,
      null,
      "1192",
      "2012-07-22",
      "2013-01-20",
      "2012-07-22",
      "2013-01-20",
      null,
      "2013-01-20T15:47",
      null,
      null,
      "701",
      80.0,
      "YEARS",
      "F",
      "WHITE",
      "NOT HISPANIC OR LATINO",
      "Xan_Lo",
      "Xanomeline Low Dose",
      "Xan_Lo",
      "Xanomeline Low Dose",
      "USA",
      "2012-07-08",
      -14.0,
      "Xanomeline Low Dose",
      "Xanomeline Low Dose",
      "2012-07-22T00:00:00",
      "H",
      "2013-01-20T23:59:59",
      "H",
      183.0,
      null,
      "COMPLETED",
      null,
      "2012-07-22",
      null,
      null,
      null,
      null,
      null,
      null,
      "2013-01-20",
      "Y",
      "White",
      ">64",
      "NA",
      null,
      null,
      null,
      null
    ],
    [
      "CDISCPILOT01",
      "AE",
      "01-701-1192",
      14.0,
      "E14",
      "APPLICATION SITE PRURITUS",
      "APPLICATION SITE ITCHING",
      null,
      "APPLICATION SITE PRURITUS",
      null,
      "HLT_0317",
      null,
      "HLGT_0338",
      null,
      "GENERAL DISORDERS AND ADMINISTRATION SITE CONDITIONS",
      null,
      "GENERAL DISORDERS AND ADMINISTRATION SITE CONDITIONS",
      null,
      "MILD",
      "N",
      null,
      "PROBABLE",
      "NOT RECOVERED/NOT RESOLVED",
      "N",
      "N",
      "N",
      "N",
      "N",
      "N",
      "N",
      "2012-12-13",
      "2012-12-05",
      null,
      137.0,
      null,
      "2012-07-22",
      "2013-01-20",
      null,
      "2013-01-20",
      "2012-12-05T00:00:00",
      null,
      "H",
      null,
      null,
      null,
      "2012-12-05",
      null,
      137.0,
      null,
      null,
      null,
      "2012-12-05T00:00:00",
      54.0,
      "mg",
      "MILD",
      "PROBABLE",
      "Y",
      1,
      null,
      "1192",
      "2012-07-22",
      "2013-01-20",
      "2012-07-22",
      "2013-01-20",
      null,
      "2013-01-20T15:47",
      null,
      null,
      "701",
      80.0,
      "YEARS",
      "F",
      "WHITE",
      "NOT HISPANIC OR LATINO",
      "Xan_Lo",
      "Xanomeline Low Dose",
      "Xan_Lo",
      "Xanomeline Low Dose",
      "USA",
      "2012-07-08",
      -14.0,
      "Xanomeline Low Dose",
      "Xanomeline Low Dose",
      "2012-07-22T00:00:00",
      "H",
      "2013-01-20T23:59:59",
      "H",
      183.0,
      null,
      "COMPLETED",
      null,
      "2012-07-22",
      null,
      null,
      null,
      null,
      null,
      null,
      "2013-01-20",
      "Y",
      "White",
      ">64",
      "NA",
      null,
      null,
      null,
      null
    ],
    [
      "CDISCPILOT01",
      "AE",
      "01-701-1192",
      15.0,
      "E12",
      "APPLICATION SITE IRRITATION",
      "APPLICATION SITE BURNING",
      null,
      "APPLICATION SITE IRRITATION",
      null,
      "HLT_0061",
      null,
      "HLGT_0346",
      null,
      "GENERAL DISORDERS AND ADMINISTRATION SITE CONDITIONS",
      null,
      "GENERAL DISORDERS AND ADMINISTRATION SITE CONDITIONS",
      null,
      "MILD",
      "N",
      null,
      "PROBABLE",
      "RECOVERED/RESOLVED",
      "N",
      "N",
      "N",
      "N",
      "N",
      "N",
      "N",
      "2013-01-11",
      "2012-12-05",
      "2012-12-16",
      137.0,
      148.0,
      "2012-07-22",
      "2013-01-20",
      null,
      "2013-01-20",
      "2012-12-05T00:00:00",
      null,
      "H",
      "2012-12-16T23:59:59",
      null,
      "H",
      "2012-12-05",
      "2012-12-16",
      137.0,
      148.0,
      12.0,
      "days",
      "2012-12-05T00:00:00",
      54.0,
      "mg",
      "MILD",
      "PROBABLE",
      "Y",
      1,
      null,
      "1192",
      "2012-07-22",
      "2013-01-20",
      "2012-07-22",
      "2013-01-20",
      null,
      "2013-01-20T15:47",
      null,
      null,
      "701",
      80.0,
      "YEARS",
      "F",
      "WHITE",
      "NOT HISPANIC OR LATINO",
      "Xan_Lo",
      "Xanomeline Low Dose",
      "Xan_Lo",
      "Xanomeline Low Dose",
      "USA",
      "2012-07-08",
      -14.0,
      "Xanomeline Low Dose",
      "Xanomeline Low Dose",
      "2012-07-22T00:00:00",
      "H",
      "2013-01-20T23:59:59",
      "H",
      183.0,
      null,
      "COMPLETED",
      null,
      "2012-07-22",
      null,
      null,
      null,
      null,
      null,
      null,
      "2013-01-20",
      "Y",
      "White",
      ">64",
      "NA",
      null,
      null,
      null,
      null
    ],
    [
      "CDISCPILOT01",
      "AE",
      "01-701-1203",
      1.0,
      "E05",
      "EYE LASER SURGERY",
      "EYE LASER SURGERY",
      null,
      "EYE LASER SURGERY",
      null,
      "HLT_0355",
      null,
      "HLGT_0189",
      null,
      "SURGICAL AND MEDICAL PROCEDURES",
      null,
      "SURGICAL AND MEDICAL PROCEDURES",
      null,
      "MILD",
      "N",
      null,
      "NONE",
      "RECOVERED/RESOLVED",
      "N",
      "N",
      "N",
      "N",
      "N",
      "N",
      "N",
      "2013-03-30",
      "2013-03-21",
      "2013-03-21",
      48.0,
      48.0,
      "2013-02-02",
      "2013-08-03",
      null,
      "2013-08-03",
      "2013-03-21T00:00:00",
      null,
      "H",
      "2013-03-21T23:59:59",
      null,
      "H",
      "2013-03-21",
      "2013-03-21",
      48.0,
      48.0,
      1.0,
      "days",
      "2013-03-21T00:00:00",
      0.0,
      "mg",
      "MILD",
      "NONE",
      "Y",
      1,
      "Y",
      "1203",
      "2013-02-02",
      "2013-08-03",
      "2013-02-02",
      "2013-08-03",
      null,
      "2013-08-03T10:10",
      null,
      null,
      "701",
      81.0,
      "YEARS",
      "F",
      "BLACK OR AFRICAN AMERICAN",
      "NOT HISPANIC OR LATINO",
      "Pbo",
      "Placebo",
      "Pbo",
      "Placebo",
      "USA",
      "2013-01-25",
      -8.0,
      "Placebo",
      "Placebo",
      "2013-02-02T00:00:00",
      "H",
      "2013-08-03T23:59:59",
      "H",
      183.0,
      null,
      "COMPLETED",
      null,
      "2013-02-02",
      null,
      null,
      null,
      null,
      null,
      null,
      "2013-08-03",
      "Y",
      "Non-white",
      ">64",
      "NA",
      null,
      null,
      null,
      null
    ],
    [
      "CDISCPILOT01",
      "AE",
      "01-701-1211",
      9.0,
      "E11",
      "SUDDEN DEATH",
      "SUDDEN DEATH",
      null,
      "SUDDEN DEATH",
      null,
      "HLT_0142",
      null,
      "HLGT_0272",
      null,
      "GENERAL DISORDERS AND ADMINISTRATION SITE CONDITIONS",
      null,
      "GENERAL DISORDERS AND ADMINISTRATION SITE CONDITIONS",
      null,
      "SEVERE",
      "N",
      null,
      "NONE",
      "FATAL",
      "N",
      "N",
      "N",
      "Y",
      "N",
      "Y",
      "N",
      "2013-01-14",
      "2013-01-14",
      "2013-01-14",
      61.0,
      61.0,
      "2012-11-15",
      "2013-01-12",
      "2013-01-14",
      "2013-01-14",
      "2013-01-14T00:00:00",
      null,
      "H",
      "2013-01-14T23:59:59",
      null,
      "H",
      "2013-01-14",
      "2013-01-14",
      61.0,
      61.0,
      1.0,
      "days",
      "2013-01-12T00:00:00",
      null,
      null,
      "SEVERE",
      "NONE",
      "Y",
      3,
      "Y",
      "1211",
      "2012-11-15",
      "2013-01-14",
      "2012-11-15",
      "2013-01-12",
      null,
      "2013-01-14",
      "2013-01-14",
      "Y",
      "701",
      76.0,
      "YEARS",
      "F",
      "WHITE",
      "NOT HISPANIC OR LATINO",
      "Xan_Lo",
      "Xanomeline Low Dose",
      "Xan_Lo",
      "Xanomeline Low Dose",
      "USA",
      "2012-10-30",
      -16.0,
      "Xanomeline Low Dose",
      "Xanomeline Low Dose",
      "2012-11-15T00:00:00",
      "H",
      "2013-01-12T23:59:59",
      "H",
      59.0,
      null,
      "DISCONTINUED",
      null,
      "2012-11-15",
      null,
      61.0,
      2.0,
      "SUDDEN DEATH",
      "AE",
      "ADVERSE EVENT",
      "2013-01-14",
      "Y",
      "White",
      ">64",
      "NA",
      "<= 30",
      "Y",
      null,
      null
    ],
    [
      "CDISCPILOT01",
      "AE",
      "01-701-1211",
      2.0,
      "E03",
      "JOINT DISLOCATION",
      "SHOULDER DISLOCATION",
      null,
      "JOINT DISLOCATION",
      null,
      "HLT_0035",
      null,
      "HLGT_0227",
      null,
      "INJURY, POISONING AND PROCEDURAL COMPLICATIONS",
      null,
      "INJURY, POISONING AND PROCEDURAL COMPLICATIONS",
      null,
      "MODERATE",
      "N",
      null,
      "NONE",
      "RECOVERED/RESOLVED",
      "N",
      "N",
      "N",
      "N",
      "N",
      "N",
      "N",
      "2012-11-28",
      "2012-11-21",
      "2012-11-21",
      7.0,
      7.0,
      "2012-11-15",
      "2013-01-12",
      "2013-01-14",
      "2013-01-14",
      "2012-11-21T00:00:00",
      null,
      "H",
      "2012-11-21T23:59:59",
      null,
      "H",
      "2012-11-21",
      "2012-11-21",
      7.0,
      7.0,
      1.0,
      "days",
      "2012-11-21T00:00:00",
      54.0,
      "mg",
      "MODERATE",
      "NONE",
      "Y",
      2,
      null,
      "1211",
      "2012-11-15",
      "2013-01-14",
      "2012-11-15",
      "2013-01-12",
      null,
      "2013-01-14",
      "2013-01-14",
      "Y",
      "701",
      76.0,
      "YEARS",
      "F",
      "WHITE",
      "NOT HISPANIC OR LATINO",
      "Xan_Lo",
      "Xanomeline Low Dose",
      "Xan_Lo",
      "Xanomeline Low Dose",
      "USA",
      "2012-10-30",
      -16.0,
      "Xanomeline Low Dose",
      "Xanomeline Low Dose",
      "2012-11-15T00:00:00",
      "H",
      "2013-01-12T23:59:59",
      "H",
      59.0,
      null,
      "DISCONTINUED",
      null,
      "2012-11-15",
      null,
      61.0,
      2.0,
      "SUDDEN DEATH",
      "AE",
      "ADVERSE EVENT",
      "2013-01-14",
      "Y",
      "White",
      ">64",
      "NA",
      "<= 30",
      "Y",
      null,
      null
    ],
    [
      "CDISCPILOT01",
      "AE",
      "01-701-1211",
      7.0,
      "E12",
      "CONFUSIONAL STATE",
      "CONFUSION",
      null,
      "CONFUSIONAL STATE",
      null,
      "HLT_0642",
      null,
      "HLGT_0329",
      null,
      "PSYCHIATRIC DISORDERS",
      null,
      "PSYCHIATRIC DISORDERS",
      null,
      "MODERATE",
      "N",
      null,
      "NONE",
      "NOT RECOVERED/NOT RESOLVED",
      "N",
      "N",
      "N",
      "N",
      "N",
      "N",
      "N",
      "2013-01-14",
      "2013-01-11",
      null,
      58.0,
      null,
      "2012-11-15",
      "2013-01-12",
      "2013-01-14",
      "2013-01-14",
      "2013-01-11T00:00:00",
      null,
      "H",
      null,
      null,
      null,
      "2013-01-11",
      null,
      58.0,
      null,
      null,
      null,
      "2013-01-11T00:00:00",
      54.0,
      "mg",
      "MODERATE",
      "NONE",
      "Y",
      2,
      null,
      "1211",
      "2012-11-15",
      "2013-01-14",
      "2012-11-15",
      "2013-01-12",
      null,
      "2013-01-14",
      "2013-01-14",
      "Y",
      "701",
      76.0,
      "YEARS",
      "F",
      "WHITE",
      "NOT HISPANIC OR LATINO",
      "Xan_Lo",
      "Xanomeline Low Dose",
      "Xan_Lo",
      "Xanomeline Low Dose",
      "USA",
      "2012-10-30",
      -16.0,
      "Xanomeline Low Dose",
      "Xanomeline Low Dose",
      "2012-11-15T00:00:00",
      "H",
      "2013-01-12T23:59:59",
      "H",
      59.0,
      null,
      "DISCONTINUED",
      null,
      "2012-11-15",
      null,
      61.0,
      2.0,
      "SUDDEN DEATH",
      "AE",
      "ADVERSE EVENT",
      "2013-01-14",
      "Y",
      "White",
      ">64",
      "NA",
      "<= 30",
      "Y",
      null,
      null
    ],
    [
      "CDISCPILOT01",
      "AE",
      "01-701-1211",
      8.0,
      "E13",
      "DYSPNOEA",
      "SHORTNESS OF BREATH",
      null,
      "DYSPNOEA",
      null,
      "HLT_0296",
      null,
      "HLGT_0255",
      null,
      "RESPIRATORY, THORACIC AND MEDIASTINAL DISORDERS",
      null,
      "RESPIRATORY, THORACIC AND MEDIASTINAL DISORDERS",
      null,
      "MODERATE",
      "N",
      null,
      "NONE",
      "NOT RECOVERED/NOT RESOLVED",
      "N",
      "N",
      "N",
      "N",
      "N",
      "N",
      "N",
      "2013-01-14",
      "2013-01-11",
      null,
      58.0,
      null,
      "2012-11-15",
      "2013-01-12",
      "2013-01-14",
      "2013-01-14",
      "2013-01-11T00:00:00",
      null,
      "H",
      null,
      null,
      null,
      "2013-01-11",
      null,
      58.0,
      null,
      null,
      null,
      "2013-01-11T00:00:00",
      54.0,
      "mg",
      "MODERATE",
      "NONE",
      "Y",
      2,
      null,
      "1211",
      "2012-11-15",
      "2013-01-14",
      "2012-11-15",
      "2013-01-12",
      null,
      "2013-01-14",
      "2013-01-14",
      "Y",
      "701",
      76.0,
      "YEARS",
      "F",
      "WHITE",
      "NOT HISPANIC OR LATINO",
      "Xan_Lo",
      "Xanomeline Low Dose",
      "Xan_Lo",
      "Xanomeline Low Dose",
      "USA",
      "2012-10-30",
      -16.0,
      "Xanomeline Low Dose",
      "Xanomeline Low Dose",
      "2012-11-15T00:00:00",
      "H",
      "2013-01-12T23:59:59",
      "H",
      59.0,
      null,
      "DISCONTINUED",
      null,
      "2012-11-15",
      null,
      61.0,
      2.0,
      "SUDDEN DEATH",
      "AE",
      "ADVERSE EVENT",
      "2013-01-14",
      "Y",
