{"datasetJSONCreationDateTime":"2025-10-21T15:37:43","datasetJSONVersion":"1.1.0","records":306,"name":"ADSL","label":"Subject Level Analysis Dataset","columns":[{"itemOID":"STUDYID","name":"STUDYID","label":"Study Identifier","dataType":"string","length":12},{"itemOID":"USUBJID","name":"USUBJID","label":"Unique Subject Identifier","dataType":"string","length":11},{"itemOID":"SUBJID","name":"SUBJID","label":"Subject Identifier for the Study","dataType":"string","length":4},{"itemOID":"RFSTDTC","name":"RFSTDTC","label":"Subject Reference Start Date/Time","dataType":"string"},{"itemOID":"RFENDTC","name":"RFENDTC","label":"Subject Reference End Date/Time","dataType":"string"},{"itemOID":"RFXSTDTC","name":"RFXSTDTC","label":"Date/Time of First Study Treatment","dataType":"string"},{"itemOID":"RFXENDTC","name":"RFXENDTC","label":"Date/Time of Last Study Treatment","dataType":"string"},{"itemOID":"RFICDTC","name":"RFICDTC","label":"Date/Time of Informed Consent","dataType":"string"},{"itemOID":"RFPENDTC","name":"RFPENDTC","label":"Date/Time of End of Participation","dataType":"string","length":16},{"itemOID":"DTHDTC","name":"DTHDTC","label":"Date/Time of Death","dataType":"string"},{"itemOID":"DTHFL","name":"DTHFL","label":"Subject Death Flag","dataType":"string"},{"itemOID":"SITEID","name":"SITEID","label":"Study Site Identifier","dataType":"string","length":3},{"itemOID":"AGE","name":"AGE","label":"Age","dataType":"float"},{"itemOID":"AGEU","name":"AGEU","label":"Age Units","dataType":"string","length":5},{"itemOID":"SEX","name":"SEX","label":"Sex","dataType":"string","length":1},{"itemOID":"RACE","name":"RACE","label":"Race","dataType":"string","length":32},{"itemOID":"ETHNIC","name":"ETHNIC","label":"Ethnicity","dataType":"string","length":22},{"itemOID":"ARMCD","name":"ARMCD","label":"Planned Arm Code","dataType":"string","length":8},{"itemOID":"ARM","name":"ARM","label":"Description of Planned Arm","dataType":"string","length":20},{"itemOID":"ACTARMCD","name":"ACTARMCD","label":"Actual Arm Code","dataType":"string","length":8},{"itemOID":"ACTARM","name":"ACTARM","label":"Description of Actual Arm","dataType":"string","length":20},{"itemOID":"COUNTRY","name":"COUNTRY","label":"Country","dataType":"string","length":3},{"itemOID":"DMDTC","name":"DMDTC","label":"Date/Time of Collection","dataType":"string","length":10},{"itemOID":"DMDY","name":"DMDY","label":"Study Day of Collection","dataType":"float"},{"itemOID":"TRT01P","name":"TRT01P","label":"Planned Treatment for Period 01","dataType":"string","length":20},{"itemOID":"TRT01A","name":"TRT01A","label":"Actual Treatment for Period 01","dataType":"string","length":20},{"itemOID":"TRTSDTM","name":"TRTSDTM","label":"Datetime of First Exposure to Treatment","dataType":"datetime","targetDataType":"integer"},{"itemOID":"TRTSTMF","name":"TRTSTMF","label":"Time of First Exposure Imput. Flag","dataType":"string"},{"itemOID":"TRTEDTM","name":"TRTEDTM","label":"Datetime of Last Exposure to Treatment","dataType":"datetime","targetDataType":"integer"},{"itemOID":"TRTETMF","name":"TRTETMF","label":"Time of Last Exposure Imput. Flag","dataType":"string"},{"itemOID":"TRTSDT","name":"TRTSDT","label":"Date of First Exposure to Treatment","dataType":"date","targetDataType":"integer"},{"itemOID":"TRTEDT","name":"TRTEDT","label":"Date of Last Exposure to Treatment","dataType":"date","targetDataType":"integer"},{"itemOID":"TRTDURD","name":"TRTDURD","label":"Total Treatment Duration (Days)","dataType":"float"},{"itemOID":"SCRFDT","name":"SCRFDT","label":"Screen Failure Date","dataType":"date","targetDataType":"integer"},{"itemOID":"EOSDT","name":"EOSDT","label":"End of Study Date","dataType":"date","targetDataType":"integer"},{"itemOID":"EOSSTT","name":"EOSSTT","label":"End of Study Status","dataType":"string"},{"itemOID":"FRVDT","name":"FRVDT","label":"Final Retrieval Visit Date","dataType":"date","targetDataType":"integer"},{"itemOID":"RANDDT","name":"RANDDT","label":"Date of Randomization","dataType":"date","targetDataType":"integer"},{"itemOID":"DTHDT","name":"DTHDT","label":"Date of Death","dataType":"date","targetDataType":"integer"},{"itemOID":"DTHDTF","name":"DTHDTF","label":"Date of Death Imputation Flag","dataType":"string"},{"itemOID":"DTHADY","name":"DTHADY","label":"Relative Day of Death","dataType":"float"},{"itemOID":"LDDTHELD","name":"LDDTHELD","label":"Elapsed Days from Last Dose to Death","dataType":"float"},{"itemOID":"DTHCAUS","name":"DTHCAUS","label":"Cause of Death","dataType":"string"},{"itemOID":"DTHDOM","name":"DTHDOM","label":"Domain for Date of Death Collection","dataType":"string"},{"itemOID":"DTHCGR1","name":"DTHCGR1","label":"Cause of Death Reason 1","dataType":"string"},{"itemOID":"LSTALVDT","name":"LSTALVDT","label":"Date Last Known Alive","dataType":"date","targetDataType":"integer"},{"itemOID":"SAFFL","name":"SAFFL","label":"Safety Population Flag","dataType":"string","length":1},{"itemOID":"RACEGR1","name":"RACEGR1","label":"Pooled Race Group 1","dataType":"string","length":9},{"itemOID":"AGEGR1","name":"AGEGR1","label":"Pooled Age Group 1","dataType":"string","length":5},{"itemOID":"REGION1","name":"REGION1","label":"Geographic Region 1","dataType":"string","length":2},{"itemOID":"LDDTHGR1","name":"LDDTHGR1","label":"Last Dose to Death - Days Elapsed Grp 1","dataType":"string"},{"itemOID":"DTH30FL","name":"DTH30FL","label":"Death Within 30 Days of Last Trt Flag","dataType":"string"},{"itemOID":"DTHA30FL","name":"DTHA30FL","label":"Death After 30 Days from Last Trt Flag","dataType":"string"},{"itemOID":"DTHB30FL","name":"DTHB30FL","label":"Death Within 30 Days of First Trt Flag","dataType":"string"}],"rows":[["CDISCPILOT01","01-701-1015","1015","2014-01-02","2014-07-02","2014-01-02","2014-07-02",null,"2014-07-02T11:45",null,null,"701",63.0,"YEARS","F","WHITE","HISPANIC OR LATINO","Pbo","Placebo","Pbo","Placebo","USA","2013-12-26",-7.0,"Placebo","Placebo","2014-01-02T00:00:00","H","2014-07-02T23:59:59","H","2014-01-02","2014-07-02",182.0,null,"2014-07-02","COMPLETED",null,"2014-01-02",null,null,null,null,null,null,null,"2014-07-02","Y","White","18-64","NA",null,null,null,null],["CDISCPILOT01","01-701-1023","1023","2012-08-05","2012-09-02","2012-08-05","2012-09-01",null,"2013-02-18",null,null,"701",64.0,"YEARS","M","WHITE","HISPANIC OR LATINO","Pbo","Placebo","Pbo","Placebo","USA","2012-07-22",-14.0,"Placebo","Placebo","2012-08-05T00:00:00","H","2012-09-01T23:59:59","H","2012-08-05","2012-09-01",28.0,null,"2012-09-02","DISCONTINUED","2013-02-18","2012-08-05",null,null,null,null,null,null,null,"2012-09-02","Y","White","18-64","NA",null,null,null,null],["CDISCPILOT01","01-701-1028","1028","2013-07-19","2014-01-14","2013-07-19","2014-01-14",null,"2014-01-14T11:10",null,null,"701",71.0,"YEARS","M","WHITE","NOT HISPANIC OR LATINO","Xan_Hi","Xanomeline High Dose","Xan_Hi","Xanomeline High Dose","USA","2013-07-11",-8.0,"Xanomeline High Dose","Xanomeline High Dose","2013-07-19T00:00:00","H","2014-01-14T23:59:59","H","2013-07-19","2014-01-14",180.0,null,"2014-01-14","COMPLETED",null,"2013-07-19",null,null,null,null,null,null,null,"2014-01-14","Y","White",">64","NA",null,null,null,null],["CDISCPILOT01","01-701-1033","1033","2014-03-18","2014-04-14","2014-03-18","2014-03-31",null,"2014-09-15",null,null,"701",74.0,"YEARS","M","WHITE","NOT HISPANIC OR LATINO","Xan_Lo","Xanomeline Low Dose","Xan_Lo","Xanomeline Low Dose","USA","2014-03-10",-8.0,"Xanomeline Low Dose","Xanomeline Low Dose","2014-03-18T00:00:00","H","2014-03-31T23:59:59","H","2014-03-18","2014-03-31",14.0,null,"2014-04-14","DISCONTINUED","2014-09-15","2014-03-18",null,null,null,null,null,null,null,"2014-04-14","Y","White",">64","NA",null,null,null,null],["CDISCPILOT01","01-701-1034","1034","2014-07-01","2014-12-30","2014-07-01","2014-12-30",null,"2014-12-30T09:50",null,null,"701",77.0,"YEARS","F","WHITE","NOT HISPANIC OR LATINO","Xan_Hi","Xanomeline High Dose","Xan_Hi","Xanomeline High Dose","USA","2014-06-24",-7.0,"Xanomeline High Dose","Xanomeline High Dose","2014-07-01T00:00:00","H","2014-12-30T23:59:59","H","2014-07-01","2014-12-30",183.0,null,"2014-12-30","COMPLETED",null,"2014-07-01",null,null,null,null,null,null,null,"2014-12-30","Y","White",">64","NA",null,null,null,null],["CDISCPILOT01","01-701-1047","1047","2013-02-12","2013-03-29","2013-02-12","2013-03-09",null,"2013-07-28",null,null,"701",85.0,"YEARS","F","WHITE","NOT HISPANIC OR LATINO","Pbo","Placebo","Pbo","Placebo","USA","2013-01-22",-21.0,"Placebo","Placebo","2013-02-12T00:00:00","H","2013-03-09T23:59:59","H","2013-02-12","2013-03-09",26.0,null,"2013-03-29","DISCONTINUED","2013-07-28","2013-02-12",null,null,null,null,null,null,null,"2013-04-07","Y","White",">64","NA",null,null,null,null],["CDISCPILOT01","01-701-1057","1057",null,null,null,null,null,"2013-12-27",null,null,"701",59.0,"YEARS","F","WHITE","HISPANIC OR LATINO","Scrnfail","Screen Failure","Scrnfail","Screen Failure","USA","2013-12-20",null,"Screen Failure","Screen Failure",null,null,null,null,null,null,null,"2013-12-20",null,null,null,null,null,null,null,null,null,null,null,null,"N","White","18-64","NA",null,null,null,null],["CDISCPILOT01","01-701-1097","1097","2014-01-01","2014-07-09","2014-01-01","2014-07-09",null,"2014-07-09T09:39",null,null,"701",68.0,"YEARS","M","WHITE","NOT HISPANIC OR LATINO","Xan_Lo","Xanomeline Low Dose","Xan_Lo","Xanomeline Low Dose","USA","2013-12-23",-9.0,"Xanomeline Low Dose","Xanomeline Low Dose","2014-01-01T00:00:00","H","2014-07-09T23:59:59","H","2014-01-01","2014-07-09",190.0,null,"2014-07-09","COMPLETED",null,"2014-01-01",null,null,null,null,null,null,null,"2014-07-09","Y","White",">64","NA",null,null,null,null],["CDISCPILOT01","01-701-1111","1111","2012-09-07","2012-09-17","2012-09-07","2012-09-16",null,"2013-02-22",null,null,"701",81.0,"YEARS","F","WHITE","NOT HISPANIC OR LATINO","Xan_Lo","Xanomeline Low Dose","Xan_Lo","Xanomeline Low Dose","USA","2012-08-25",-13.0,"Xanomeline Low Dose","Xanomeline Low Dose","2012-09-07T00:00:00","H","2012-09-16T23:59:59","H","2012-09-07","2012-09-16",10.0,null,"2012-09-17","DISCONTINUED","2013-02-22","2012-09-07",null,null,null,null,null,null,null,"2012-09-17","Y","White",">64","NA",null,null,null,null],["CDISCPILOT01","01-701-1115","1115","2012-11-30","2013-01-23","2012-11-30","2013-01-23",null,"2013-05-20",null,null,"701",84.0,"YEARS","M","WHITE","NOT HISPANIC OR LATINO","Xan_Lo","Xanomeline Low Dose","Xan_Lo","Xanomeline Low Dose","USA","2012-11-23",-7.0,"Xanomeline Low Dose","Xanomeline Low Dose","2012-11-30T00:00:00","H","2013-01-23T23:59:59","H","2012-11-30","2013-01-23",55.0,null,"2013-01-23","DISCONTINUED","2013-05-20","2012-11-30",null,null,null,null,null,null,null,"2013-01-23","Y","White",">64","NA",null,null,null,null],["CDISCPILOT01","01-701-1118","1118","2014-03-12","2014-09-09","2014-03-12","2014-09-09",null,"2014-09-09T13:28",null,null,"701",52.0,"YEARS","M","WHITE","NOT HISPANIC OR LATINO","Pbo","Placebo","Pbo","Placebo","USA","2014-02-27",-13.0,"Placebo","Placebo","2014-03-12T00:00:00","H","2014-09-09T23:59:59","H","2014-03-12","2014-09-09",182.0,null,"2014-09-09","COMPLETED",null,"2014-03-12",null,null,null,null,null,null,null,"2014-09-09","Y","White","18-64","NA",null,null,null,null],["CDISCPILOT01","01-701-1130","1130","2014-02-15","2014-08-16","2014-02-15","2014-08-16",null,"2014-08-16T13:10",null,null,"701",84.0,"YEARS","M","WHITE","NOT HISPANIC OR LATINO","Pbo","Placebo","Pbo","Placebo","USA","2014-02-09",-6.0,"Placebo","Placebo","2014-02-15T00:00:00","H","2014-08-16T23:59:59","H","2014-02-15","2014-08-16",183.0,null,"2014-08-16","COMPLETED",null,"2014-02-15",null,null,null,null,null,null,null,"2014-08-16","Y","White",">64","NA",null,null,null,null],["CDISCPILOT01","01-701-1133","1133","2012-10-28","2013-04-29","2012-10-28","2013-04-28",null,"2013-04-29T10:13",null,null,"701",81.0,"YEARS","F","WHITE","NOT HISPANIC OR LATINO","Xan_Hi","Xanomeline High Dose","Xan_Hi","Xanomeline High Dose","USA","2012-10-23",-5.0,"Xanomeline High Dose","Xanomeline High Dose","2012-10-28T00:00:00","H","2013-04-28T23:59:59","H","2012-10-28","2013-04-28",183.0,null,"2013-04-29","COMPLETED",null,"2012-10-28",null,null,null,null,null,null,null,"2013-04-29","Y","White",">64","NA",null,null,null,null],["CDISCPILOT01","01-701-1145","1145",null,null,null,null,null,"2013-09-19",null,null,"701",57.0,"YEARS","F","WHITE","NOT HISPANIC OR LATINO","Scrnfail","Screen Failure","Scrnfail","Screen Failure","USA","2013-09-05",null,"Screen Failure","Screen Failure",null,null,null,null,null,null,null,"2013-09-05",null,null,null,null,null,null,null,null,null,null,null,null,"N","White","18-64","NA",null,null,null,null],["CDISCPILOT01","01-701-1146","1146","2013-05-20","2013-06-30","2013-05-20","2013-06-26",null,"2013-07-15",null,null,"701",75.0,"YEARS","F","WHITE","NOT HISPANIC OR LATINO","Xan_Hi","Xanomeline High Dose","Xan_Hi","Xanomeline High Dose","USA","2013-05-07",-13.0,"Xanomeline High Dose","Xanomeline High Dose","2013-05-20T00:00:00","H","2013-06-26T23:59:59","H","2013-05-20","2013-06-26",38.0,null,"2013-06-30","DISCONTINUED",null,"2013-05-20",null,null,null,null,null,null,null,"2013-06-30","Y","White",">64","NA",null,null,null,null],["CDISCPILOT01","01-701-1148","1148","2013-08-23","2014-02-20","2013-08-23","2014-02-20",null,"2014-02-20T15:07",null,null,"701",57.0,"YEARS","M","WHITE","NOT HISPANIC OR LATINO","Xan_Hi","Xanomeline High Dose","Xan_Hi","Xanomeline High Dose","USA","2013-08-14",-9.0,"Xanomeline High Dose","Xanomeline High Dose","2013-08-23T00:00:00","H","2014-02-20T23:59:59","H","2013-08-23","2014-02-20",182.0,null,"2014-02-20","COMPLETED",null,"2013-08-23",null,null,null,null,null,null,null,"2014-02-20","Y","White","18-64","NA",null,null,null,null],["CDISCPILOT01","01-701-1153","1153","2013-09-23","2014-04-01","2013-09-23","2014-03-16",null,"2014-04-01T14:25",null,null,"701",79.0,"YEARS","F","WHITE","NOT HISPANIC OR LATINO","Pbo","Placebo","Pbo","Placebo","USA","2013-09-06",-17.0,"Placebo","Placebo","2013-09-23T00:00:00","H","2014-03-16T23:59:59","H","2013-09-23","2014-03-16",175.0,null,"2014-04-01","COMPLETED",null,"2013-09-23",null,null,null,null,null,null,null,"2014-04-01","Y","White",">64","NA",null,null,null,null],["CDISCPILOT01","01-701-1162","1162",null,null,null,null,null,"2013-04-18",null,null,"701",82.0,"YEARS","F","WHITE","NOT HISPANIC OR LATINO","Scrnfail","Screen Failure","Scrnfail","Screen Failure","USA","2013-04-18",null,"Screen Failure","Screen Failure",null,null,null,null,null,null,null,"2013-04-18",null,null,null,null,null,null,null,null,null,null,null,null,"N","White",">64","NA",null,null,null,null],["CDISCPILOT01","01-701-1176","1176",null,null,null,null,null,"2012-09-30",null,null,"701",62.0,"YEARS","F","AMERICAN INDIAN OR ALASKA NATIVE","NOT HISPANIC OR LATINO","Scrnfail","Screen Failure","Scrnfail","Screen Failure","USA","2012-09-30",null,"Screen Failure","Screen Failure",null,null,null,null,null,null,null,"2012-09-30",null,null,null,null,null,null,null,null,null,null,null,null,"N","Non-white","18-64","NA",null,null,null,null],["CDISCPILOT01","01-701-1180","1180","2013-02-12","2013-03-23","2013-02-12","2013-03-18",null,"2013-04-07",null,null,"701",56.0,"YEARS","M","WHITE","NOT HISPANIC OR LATINO","Xan_Hi","Xanomeline High Dose","Xan_Hi","Xanomeline High Dose","USA","2013-01-28",-15.0,"Xanomeline High Dose","Xanomeline High Dose","2013-02-12T00:00:00","H","2013-03-18T23:59:59","H","2013-02-12","2013-03-18",35.0,null,"2013-03-23","DISCONTINUED",null,"2013-02-12",null,null,null,null,null,null,null,"2013-03-23","Y","White","18-64","NA",null,null,null,null],["CDISCPILOT01","01-701-1181","1181","2013-12-05","2013-12-12","2013-12-05","2013-12-09",null,"2014-05-23",null,null,"701",79.0,"YEARS","F","WHITE","NOT HISPANIC OR LATINO","Xan_Hi","Xanomeline High Dose","Xan_Lo","Xanomeline Low Dose","USA","2013-11-26",-9.0,"Xanomeline High Dose","Xanomeline Low Dose","2013-12-05T00:00:00","H","2013-12-09T23:59:59","H","2013-12-05","2013-12-09",5.0,null,"2013-12-12","DISCONTINUED","2014-05-23","2013-12-05",null,null,null,null,null,null,null,"2013-12-12","Y","White",">64","NA",null,null,null,null],["CDISCPILOT01","01-701-1188","1188","2013-02-15","2013-03-25","2013-02-15","2013-03-24",null,"2013-08-04",null,null,"701",71.0,"YEARS","M","WHITE","NOT HISPANIC OR LATINO","Xan_Lo","Xanomeline Low Dose","Xan_Lo","Xanomeline Low Dose","USA","2013-02-03",-12.0,"Xanomeline Low Dose","Xanomeline Low Dose","2013-02-15T00:00:00","H","2013-03-24T23:59:59","H","2013-02-15","2013-03-24",38.0,null,"2013-03-25","DISCONTINUED","2013-08-04","2013-02-15",null,null,null,null,null,null,null,"2013-03-25","Y","White",">64","NA",null,null,null,null],["CDISCPILOT01","01-701-1192","1192","2012-07-22","2013-01-20","2012-07-22","2013-01-20",null,"2013-01-20T15:47",null,null,"701",80.0,"YEARS","F","WHITE","NOT HISPANIC OR LATINO","Xan_Lo","Xanomeline Low Dose","Xan_Lo","Xanomeline Low Dose","USA","2012-07-08",-14.0,"Xanomeline Low Dose","Xanomeline Low Dose","2012-07-22T00:00:00","H","2013-01-20T23:59:59","H","2012-07-22","2013-01-20",183.0,null,"2013-01-20","COMPLETED",null,"2012-07-22",null,null,null,null,null,null,null,"2013-01-20","Y","White",">64","NA",null,null,null,null],["CDISCPILOT01","01-701-1203","1203","2013-02-02","2013-08-03","2013-02-02","2013-08-03",null,"2013-08-03T10:10",null,null,"701",81.0,"YEARS","F","BLACK OR AFRICAN AMERICAN","NOT HISPANIC OR LATINO","Pbo","Placebo","Pbo","Placebo","USA","2013-01-25",-8.0,"Placebo","Placebo","2013-02-02T00:00:00","H","2013-08-03T23:59:59","H","2013-02-02","2013-08-03",183.0,null,"2013-08-03","COMPLETED",null,"2013-02-02",null,null,null,null,null,null,null,"2013-08-03","Y","Non-white",">64","NA",null,null,null,null],["CDISCPILOT01","01-701-1211","1211","2012-11-15","2013-01-14","2012-11-15","2013-01-12",null,"2013-01-14","2013-01-14","Y","701",76.0,"YEARS","F","WHITE","NOT HISPANIC OR LATINO","Xan_Lo","Xanomeline Low Dose","Xan_Lo","Xanomeline Low Dose","USA","2012-10-30",-16.0,"Xanomeline Low Dose","Xanomeline Low Dose","2012-11-15T00:00:00","H","2013-01-12T23:59:59","H","2012-11-15","2013-01-12",59.0,null,"2013-01-14","DISCONTINUED",null,"2012-11-15","2013-01-14",null,61.0,2.0,"SUDDEN DEATH","AE","ADVERSE EVENT","2013-01-14","Y","White",">64","NA","<= 30","Y",null,null],["CDISCPILOT01","01-701-1234","1234","2013-03-30","2013-09-22","2013-03-30","2013-09-22",null,"2013-09-22T09:25",null,null,"701",69.0,"YEARS","M","WHITE","NOT HISPANIC OR LATINO","Pbo","Placebo","Pbo","Placebo","USA","2013-03-20",-10.0,"Placebo","Placebo","2013-03-30T00:00:00","H","2013-09-22T23:59:59","H","2013-03-30","2013-09-22",177.0,null,"2013-09-22","COMPLETED",null,"2013-03-30",null,null,null,null,null,null,null,"2013-09-22","Y","White",">64","NA",null,null,null,null],["CDISCPILOT01","01-701-1239","1239","2014-01-11","2014-07-11","2014-01-11","2014-07-10",null,"2014-07-11T15:40",null,null,"701",56.0,"YEARS","M","WHITE","HISPANIC OR LATINO","Xan_Hi","Xanomeline High Dose","Xan_Hi","Xanomeline High Dose","USA","2013-12-28",-14.0,"Xanomeline High Dose","Xanomeline High Dose","2014-01-11T00:00:00","H","2014-07-10T23:59:59","H","2014-01-11","2014-07-10",181.0,null,"2014-07-11","COMPLETED",null,"2014-01-11",null,null,null,null,null,null,null,"2014-07-11","Y","White","18-64","NA",null,null,null,null],["CDISCPILOT01","01-701-1240","1240",null,null,null,null,null,"2013-09-24",null,null,"701",57.0,"YEARS","F","BLACK OR AFRICAN AMERICAN","NOT HISPANIC OR LATINO","Scrnfail","Screen Failure","Scrnfail","Screen Failure","USA","2013-09-22",null,"Screen Failure","Screen Failure",null,null,null,null,null,null,null,"2013-09-22",null,null,null,null,null,null,null,null,null,null,null,null,"N","Non-white","18-64","NA",null,null,null,null],["CDISCPILOT01","01-701-1275","1275","2014-02-07","2014-06-14","2014-02-07","2014-05-31",null,"2014-06-14T12:35",null,null,"701",61.0,"YEARS","M","AMERICAN INDIAN OR ALASKA NATIVE","NOT HISPANIC OR LATINO","Xan_Hi","Xanomeline High Dose","Xan_Hi","Xanomeline High Dose","USA","2014-01-25",-13.0,"Xanomeline High Dose","Xanomeline High Dose","2014-02-07T00:00:00","H","2014-05-31T23:59:59","H","2014-02-07","2014-05-31",114.0,null,"2014-06-14","DISCONTINUED",null,"2014-02-07",null,null,null,null,null,null,null,"2014-06-14","Y","Non-white","18-64","NA",null,null,null,null],["CDISCPILOT01","01-701-1287","1287","2014-01-25","2014-07-26","2014-01-25","2014-07-26",null,"2014-07-26T13:15",null,null,"701",56.0,"YEARS","F","WHITE","HISPANIC OR LATINO","Xan_Hi","Xanomeline High Dose","Xan_Hi","Xanomeline High Dose","USA","2014-01-17",-8.0,"Xanomeline High Dose","Xanomeline High Dose","2014-01-25T00:00:00","H","2014-07-26T23:59:59","H","2014-01-25","2014-07-26",183.0,null,"2014-07-26","COMPLETED",null,"2014-01-25",null,null,null,null,null,null,null,"2014-07-26","Y","White","18-64","NA",null,null,null,null],["CDISCPILOT01","01-701-1294","1294","2013-03-24","2013-06-14","2013-03-24","2013-06-14",null,"2013-10-08",null,null,"701",67.0,"YEARS","M","WHITE","NOT HISPANIC OR LATINO","Xan_Lo","Xanomeline Low Dose","Xan_Lo","Xanomeline Low Dose","USA","2013-03-17",-7.0,"Xanomeline Low Dose","Xanomeline Low Dose","2013-03-24T00:00:00","H","2013-06-14T23:59:59","H","2013-03-24","2013-06-14",83.0,null,"2013-06-14","DISCONTINUED","2013-10-08","2013-03-24",null,null,null,null,null,null,null,"2013-06-14","Y","White",">64","NA",null,null,null,null],["CDISCPILOT01","01-701-1302","1302","2013-08-29","2013-11-05","2013-08-29","2013-11-05",null,"2014-02-13",null,null,"701",61.0,"YEARS","M","WHITE","NOT HISPANIC OR LATINO","Xan_Hi","Xanomeline High Dose","Xan_Hi","Xanomeline High Dose","USA","2013-08-20",-9.0,"Xanomeline High Dose","Xanomeline High Dose","2013-08-29T00:00:00","H","2013-11-05T23:59:59","H","2013-08-29","2013-11-05",69.0,null,"2013-11-05","DISCONTINUED","2014-02-13","2013-08-29",null,null,null,null,null,null,null,"2013-11-05","Y","White","18-64","NA",null,null,null,null],["CDISCPILOT01","01-701-1307","1307",null,null,null,null,null,"2014-01-02",null,null,"701",80.0,"YEARS","F","WHITE","NOT HISPANIC OR LATINO","Scrnfail","Screen Failure","Scrnfail","Screen Failure","USA","2013-12-08",null,"Screen Failure","Screen Failure",null,null,null,null,null,null,null,"2013-12-08",null,null,null,null,null,null,null,null,null,null,null,null,"N","White",">64","NA",null,null,null,null],["CDISCPILOT01","01-701-1317","1317","2014-05-22","2014-11-20","2014-05-22","2014-11-20",null,"2014-11-20T11:54",null,null,"701",68.0,"YEARS","M","WHITE","NOT HISPANIC OR LATINO","Xan_Lo","Xanomeline Low Dose","Xan_Lo","Xanomeline Low Dose","USA","2014-05-10",-12.0,"Xanomeline Low Dose","Xanomeline Low Dose","2014-05-22T00:00:00","H","2014-11-20T23:59:59","H","2014-05-22","2014-11-20",183.0,null,"2014-11-20","COMPLETED",null,"2014-05-22",null,null,null,null,null,null,null,"2014-11-20","Y","White",">64","NA",null,null,null,null],["CDISCPILOT01","01-701-1324","1324","2012-10-02","2013-04-02","2012-10-02","2013-04-02",null,"2013-04-02T11:35",null,null,"701",79.0,"YEARS","M","WHITE","NOT HISPANIC OR LATINO","Xan_Lo","Xanomeline Low Dose","Xan_Lo","Xanomeline Low Dose","USA","2012-09-16",-16.0,"Xanomeline Low Dose","Xanomeline Low Dose","2012-10-02T00:00:00","H","2013-04-02T23:59:59","H","2012-10-02","2013-04-02",183.0,null,"2013-04-02","COMPLETED",null,"2012-10-02",null,null,null,null,null,null,null,"2013-04-02","Y","White",">64","NA",null,null,null,null],["CDISCPILOT01","01-701-1341","1341","2013-01-05","2013-02-07","2013-01-05","2013-01-26",null,"2013-02-21",null,null,"701",51.0,"YEARS","M","WHITE","NOT HISPANIC OR LATINO","Xan_Lo","Xanomeline Low Dose","Xan_Lo","Xanomeline Low Dose","USA","2012-12-22",-14.0,"Xanomeline Low Dose","Xanomeline Low Dose","2013-01-05T00:00:00","H","2013-01-26T23:59:59","H","2013-01-05","2013-01-26",22.0,null,"2013-02-07","DISCONTINUED",null,"2013-01-05",null,null,null,null,null,null,null,"2013-02-07","Y","White","18-64","NA",null,null,null,null],["CDISCPILOT01","01-701-1345","1345","2013-10-08","2014-03-18","2013-10-08","2014-03-18",null,"2014-03-18T14:12",null,null,"701",63.0,"YEARS","F","WHITE","NOT HISPANIC OR LATINO","Pbo","Placebo","Pbo","Placebo","USA","2013-10-01",-7.0,"Placebo","Placebo","2013-10-08T00:00:00","H","2014-03-18T23:59:59","H","2013-10-08","2014-03-18",162.0,null,"2014-03-18","DISCONTINUED",null,"2013-10-08",null,null,null,null,null,null,null,"2014-03-18","Y","White","18-64","NA",null,null,null,null],["CDISCPILOT01","01-701-1356","1356",null,null,null,null,null,"2014-05-28",null,null,"701",54.0,"YEARS","F","WHITE","HISPANIC OR LATINO","Scrnfail","Screen Failure","Scrnfail","Screen Failure","USA","2014-04-01",null,"Screen Failure","Screen Failure",null,null,null,null,null,null,null,"2014-04-01",null,null,null,null,null,null,null,null,null,null,null,null,"N","White","18-64","NA",null,null,null,null],["CDISCPILOT01","01-701-1360","1360","2013-07-31","2013-08-14","2013-07-31","2013-08-05",null,"2014-02-11",null,null,"701",67.0,"YEARS","M","WHITE","NOT HISPANIC OR LATINO","Xan_Hi","Xanomeline High Dose","Xan_Lo","Xanomeline Low Dose","USA","2013-07-24",-7.0,"Xanomeline High Dose","Xanomeline Low Dose","2013-07-31T00:00:00","H","2013-08-05T23:59:59","H","2013-07-31","2013-08-05",6.0,null,"2013-08-14","DISCONTINUED","2014-02-11","2013-07-31",null,null,null,null,null,null,null,"2013-08-14","Y","White",">64","NA",null,null,null,null],["CDISCPILOT01","01-701-1363","1363","2013-05-30","2013-11-27","2013-05-30","2013-11-27",null,"2013-11-27T10:00",null,null,"701",81.0,"YEARS","F","BLACK OR AFRICAN AMERICAN","NOT HISPANIC OR LATINO","Pbo","Placebo","Pbo","Placebo","USA","2013-05-20",-10.0,"Placebo","Placebo","2013-05-30T00:00:00","H","2013-11-27T23:59:59","H","2013-05-30","2013-11-27",182.0,null,"2013-11-27","COMPLETED",null,"2013-05-30",null,null,null,null,null,null,null,"2013-11-27","Y","Non-white",">64","NA",null,null,null,null],["CDISCPILOT01","01-701-1369","1369",null,null,null,null,null,"2013-09-30",null,null,"701",74.0,"YEARS","M","WHITE","NOT HISPANIC OR LATINO","Scrnfail","Screen Failure","Scrnfail","Screen Failure","USA","2013-09-18",null,"Screen Failure","Screen Failure",null,null,null,null,null,null,null,"2013-09-18",null,null,null,null,null,null,null,null,null,null,null,null,"N","White",">64","NA",null,null,null,null],["CDISCPILOT01","01-701-1383","1383","2013-02-04","2013-08-06","2013-02-04","2013-08-06",null,"2013-08-06T12:00",null,null,"701",72.0,"YEARS","F","WHITE","NOT HISPANIC OR LATINO","Xan_Hi","Xanomeline High Dose","Xan_Hi","Xanomeline High Dose","USA","2013-01-22",-13.0,"Xanomeline High Dose","Xanomeline High Dose","2013-02-04T00:00:00","H","2013-08-06T23:59:59","H","2013-02-04","2013-08-06",184.0,null,"2013-08-06","COMPLETED",null,"2013-02-04",null,null,null,null,null,null,null,"2013-08-06","Y","White",">64","NA",null,null,null,null],["CDISCPILOT01","01-701-1386","1386",null,null,null,null,null,"2014-01-07",null,null,"701",71.0,"YEARS","M","WHITE","NOT HISPANIC OR LATINO","Scrnfail","Screen Failure","Scrnfail","Screen Failure","USA","2013-12-28",null,"Screen Failure","Screen Failure",null,null,null,null,null,null,null,"2013-12-28",null,null,null,null,null,null,null,null,null,null,null,null,"N","White",">64","NA",null,null,null,null],["CDISCPILOT01","01-701-1387","1387","2014-03-12","2014-03-25","2014-03-12","2014-03-25",null,"2014-08-27",null,null,"701",87.0,"YEARS","F","WHITE","NOT HISPANIC OR LATINO","Pbo","Placebo","Pbo","Placebo","USA","2014-02-23",-17.0,"Placebo","Placebo","2014-03-12T00:00:00","H","2014-03-25T23:59:59","H","2014-03-12","2014-03-25",14.0,null,"2014-03-25","DISCONTINUED","2014-08-27","2014-03-12",null,null,null,null,null,null,null,"2014-03-25","Y","White",">64","NA",null,null,null,null],["CDISCPILOT01","01-701-1392","1392","2012-10-28","2013-04-28","2012-10-28","2013-04-28",null,"2013-04-28T11:30",null,null,"701",78.0,"YEARS","M","WHITE","NOT HISPANIC OR LATINO","Pbo","Placebo","Pbo","Placebo","USA","2012-10-17",-11.0,"Placebo","Placebo","2012-10-28T00:00:00","H","2013-04-28T23:59:59","H","2012-10-28","2013-04-28",183.0,null,"2013-04-28","COMPLETED",null,"2012-10-28",null,null,null,null,null,null,null,"2013-04-28","Y","White",">64","NA",null,null,null,null],["CDISCPILOT01","01-701-1411","1411",null,null,null,null,null,"2012-11-24",null,null,"701",76.0,"YEARS","M","BLACK OR AFRICAN AMERICAN","NOT HISPANIC OR LATINO","Scrnfail","Screen Failure","Scrnfail","Screen Failure","USA","2012-11-14",null,"Screen Failure","Screen Failure",null,null,null,null,null,null,null,"2012-11-14",null,null,null,null,null,null,null,null,null,null,null,null,"N","Non-white",">64","NA",null,null,null,null],["CDISCPILOT01","01-701-1415","1415","2013-09-23","2014-03-24","2013-09-23","2014-03-24",null,"2014-03-24T12:34",null,null,"701",85.0,"YEARS","M","WHITE","NOT HISPANIC OR LATINO","Pbo","Placebo","Pbo","Placebo","USA","2013-09-15",-8.0,"Placebo","Placebo","2013-09-23T00:00:00","H","2014-03-24T23:59:59","H","2013-09-23","2014-03-24",183.0,null,"2014-03-24","COMPLETED",null,"2013-09-23",null,null,null,null,null,null,null,"2014-03-24","Y","White",">64","NA",null,null,null,null],["CDISCPILOT01","01-701-1429","1429","2013-03-19","2013-04-30","2013-03-19","2013-04-30",null,"2013-04-30T12:22",null,null,"701",84.0,"YEARS","F","WHITE","NOT HISPANIC OR LATINO","Xan_Lo","Xanomeline Low Dose","Xan_Lo","Xanomeline Low Dose","USA","2013-02-25",-22.0,"Xanomeline Low Dose","Xanomeline Low Dose","2013-03-19T00:00:00","H","2013-04-30T23:59:59","H","2013-03-19","2013-04-30",43.0,null,"2013-04-30","DISCONTINUED",null,"2013-03-19",null,null,null,null,null,null,null,"2013-04-30","Y","White",">64","NA",null,null,null,null],["CDISCPILOT01","01-701-1440","1440","2013-08-08","2014-02-05","2013-08-08","2014-02-05",null,"2014-02-05T11:25",null,null,"701",70.0,"YEARS","M","WHITE","NOT HISPANIC OR LATINO","Pbo","Placebo","Pbo","Placebo","USA","2013-07-24",-15.0,"Placebo","Placebo","2013-08-08T00:00:00","H","2014-02-05T23:59:59","H","2013-08-08","2014-02-05",182.0,null,"2014-02-05","COMPLETED",null,"2013-08-08",null,null,null,null,null,null,null,"2014-02-05","Y","White",">64","NA",null,null,null,null],["CDISCPILOT01","01-701-1442","1442","2013-10-26","2014-04-26","2013-10-26","2014-04-26",null,"2014-04-26T10:00",null,null,"701",57.0,"YEARS","F","BLACK OR AFRICAN AMERICAN","NOT HISPANIC OR LATINO","Xan_Lo","Xanomeline Low Dose","Xan_Lo","Xanomeline Low Dose","USA","2013-10-17",-9.0,"Xanomeline Low Dose","Xanomeline Low Dose","2013-10-26T00:00:00","H","2014-04-26T23:59:59","H","2013-10-26","2014-04-26",183.0,null,"2014-04-26","COMPLETED",null,"2013-10-26",null,null,null,null,null,null,null,"2014-04-26","Y","Non-white","18-64","NA",null,null,null,null],["CDISCPILOT01","01-701-1444","1444","2013-01-05","2013-02-13","2013-01-05","2013-02-12",null,"2013-06-20",null,null,"701",63.0,"YEARS","M","WHITE","HISPANIC OR LATINO","Xan_Hi","Xanomeline High Dose","Xan_Hi","Xanomeline High Dose","USA","2012-12-31",-5.0,"Xanomeline High Dose","Xanomeline High Dose","2013-01-05T00:00:00","H","2013-02-12T23:59:59","H","2013-01-05","2013-02-12",39.0,null,"2013-02-13","DISCONTINUED","2013-06-20","2013-01-05",null,null,null,null,null,null,null,"2013-02-13","Y","White","18-64","NA",null,null,null,null],["CDISCPILOT01","01-702-1082","1082","2013-07-26","2013-11-17","2013-07-26","2013-10-13",null,"2013-11-17T12:20",null,null,"702",84.0,"YEARS","F","WHITE","NOT HISPANIC OR LATINO","Xan_Lo","Xanomeline Low Dose","Xan_Lo","Xanomeline Low Dose","USA","2013-07-03",-23.0,"Xanomeline Low Dose","Xanomeline Low Dose","2013-07-26T00:00:00","H","2013-10-13T23:59:59","H","2013-07-26","2013-10-13",80.0,null,"2013-11-17","DISCONTINUED",null,"2013-07-26",null,null,null,null,null,null,null,"2013-11-17","Y","White",">64","NA",null,null,null,null],["CDISCPILOT01","01-703-1042","1042","2013-03-02","2013-08-31","2013-03-02","2013-08-31",null,"2013-08-31T11:00",null,null,"703",64.0,"YEARS","M","WHITE","NOT HISPANIC OR LATINO","Pbo","Placebo","Pbo","Placebo","USA","2013-02-23",-7.0,"Placebo","Placebo","2013-03-02T00:00:00","H","2013-08-31T23:59:59","H","2013-03-02","2013-08-31",183.0,null,"2013-08-31","COMPLETED",null,"2013-03-02",null,null,null,null,null,null,null,"2013-08-31","Y","White","18-64","NA",null,null,null,null],["CDISCPILOT01","01-703-1076","1076","2013-10-25","2013-12-24","2013-10-25","2013-12-24",null,"2014-01-21",null,null,"703",69.0,"YEARS","M","WHITE","NOT HISPANIC OR LATINO","Xan_Hi","Xanomeline High Dose","Xan_Hi","Xanomeline High Dose","USA","2013-10-17",-8.0,"Xanomeline High Dose","Xanomeline High Dose","2013-10-25T00:00:00","H","2013-12-24T23:59:59","H","2013-10-25","2013-12-24",61.0,null,"2013-12-24","DISCONTINUED",null,"2013-10-25",null,null,null,null,null,null,null,"2013-12-24","Y","White",">64","NA",null,null,null,null],["CDISCPILOT01","01-703-1086","1086","2012-09-02","2012-12-24","2012-09-02","2012-12-04",null,"2013-03-26",null,null,"703",71.0,"YEARS","M","WHITE","NOT HISPANIC OR LATINO","Xan_Lo","Xanomeline Low Dose","Xan_Lo","Xanomeline Low Dose","USA","2012-08-22",-11.0,"Xanomeline Low Dose","Xanomeline Low Dose","2012-09-02T00:00:00","H","2012-12-04T23:59:59","H","2012-09-02","2012-12-04",94.0,null,"2012-12-24","DISCONTINUED","2013-03-26","2012-09-02",null,null,null,null,null,null,null,"2013-01-02","Y","White",">64","NA",null,null,null,null],["CDISCPILOT01","01-703-1096","1096","2013-01-25","2013-03-29","2013-01-25","2013-03-16",null,"2013-03-29",null,null,"703",81.0,"YEARS","F","WHITE","NOT HISPANIC OR LATINO","Pbo","Placebo","Pbo","Placebo","USA","2012-12-19",-37.0,"Placebo","Placebo","2013-01-25T00:00:00","H","2013-03-16T23:59:59","H","2013-01-25","2013-03-16",51.0,null,"2013-03-29","DISCONTINUED",null,"2013-01-25",null,null,null,null,null,null,null,"2013-03-16","Y","White",">64","NA",null,null,null,null],["CDISCPILOT01","01-703-1100","1100","2013-03-13","2013-09-14","2013-03-13","2013-09-14",null,"2013-09-14T15:00",null,null,"703",84.0,"YEARS","F","WHITE","NOT HISPANIC OR LATINO","Pbo","Placebo","Pbo","Placebo","USA","2013-02-28",-13.0,"Placebo","Placebo","2013-03-13T00:00:00","H","2013-09-14T23:59:59","H","2013-03-13","2013-09-14",186.0,null,"2013-09-14","COMPLETED",null,"2013-03-13",null,null,null,null,null,null,null,"2013-09-14","Y","White",">64","NA",null,null,null,null],["CDISCPILOT01","01-703-1119","1119","2013-02-20","2013-06-13","2013-02-20","2013-06-13",null,"2013-08-24",null,null,"703",81.0,"YEARS","F","WHITE","NOT HISPANIC OR LATINO","Xan_Lo","Xanomeline Low Dose","Xan_Lo","Xanomeline Low Dose","USA","2013-02-02",-18.0,"Xanomeline Low Dose","Xanomeline Low Dose","2013-02-20T00:00:00","H","2013-06-13T23:59:59","H","2013-02-20","2013-06-13",114.0,null,"2013-06-13","DISCONTINUED","2013-08-24","2013-02-20",null,null,null,null,null,null,null,"2013-06-13","Y","White",">64","NA",null,null,null,null],["CDISCPILOT01","01-703-1175","1175","2013-12-20","2013-12-31","2013-12-20","2013-12-26",null,"2013-12-31T13:15",null,null,"703",75.0,"YEARS","M","WHITE","NOT HISPANIC OR LATINO","Pbo","Placebo","Pbo","Placebo","USA","2013-12-13",-7.0,"Placebo","Placebo","2013-12-20T00:00:00","H","2013-12-26T23:59:59","H","2013-12-20","2013-12-26",7.0,null,"2013-12-31","DISCONTINUED",null,"2013-12-20",null,null,null,null,null,null,null,"2013-12-31","Y","White",">64","NA",null,null,null,null],["CDISCPILOT01","01-703-1182","1182","2013-10-17","2013-12-12","2013-10-17","2013-12-11",null,"2014-01-14",null,null,"703",84.0,"YEARS","M","WHITE","NOT HISPANIC OR LATINO","Xan_Lo","Xanomeline Low Dose","Xan_Lo","Xanomeline Low Dose","USA","2013-10-08",-9.0,"Xanomeline Low Dose","Xanomeline Low Dose","2013-10-17T00:00:00","H","2013-12-11T23:59:59","H","2013-10-17","2013-12-11",56.0,null,"2013-12-12","DISCONTINUED",null,"2013-10-17",null,null,null,null,null,null,null,"2013-12-12","Y","White",">64","NA",null,null,null,null],["CDISCPILOT01","01-703-1197","1197","2013-06-16","2013-07-22","2013-06-16","2013-06-29",null,"2013-07-22",null,null,"703",76.0,"YEARS","F","BLACK OR AFRICAN AMERICAN","NOT HISPANIC OR LATINO","Xan_Lo","Xanomeline Low Dose","Xan_Lo","Xanomeline Low Dose","USA","2013-06-01",-15.0,"Xanomeline Low Dose","Xanomeline Low Dose","2013-06-16T00:00:00","H","2013-06-29T23:59:59","H","2013-06-16","2013-06-29",14.0,null,"2013-07-22","DISCONTINUED",null,"2013-06-16",null,null,null,null,null,null,null,"2013-06-29","Y","Non-white",">64","NA",null,null,null,null],["CDISCPILOT01","01-703-1210","1210","2013-03-16","2013-09-06","2013-03-16","2013-09-06",null,"2013-09-06T13:30",null,null,"703",72.0,"YEARS","F","WHITE","NOT HISPANIC OR LATINO","Pbo","Placebo","Pbo","Placebo","USA","2013-03-08",-8.0,"Placebo","Placebo","2013-03-16T00:00:00","H","2013-09-06T23:59:59","H","2013-03-16","2013-09-06",175.0,null,"2013-09-06","COMPLETED",null,"2013-03-16",null,null,null,null,null,null,null,"2013-09-06","Y","White",">64","NA",null,null,null,null],["CDISCPILOT01","01-703-1258","1258","2012-07-20","2013-01-21","2012-07-20","2013-01-11",null,"2013-01-28",null,null,"703",78.0,"YEARS","F","WHITE","NOT HISPANIC OR LATINO","Xan_Hi","Xanomeline High Dose","Xan_Hi","Xanomeline High Dose","USA","2012-07-10",-10.0,"Xanomeline High Dose","Xanomeline High Dose","2012-07-20T00:00:00","H","2013-01-11T23:59:59","H","2012-07-20","2013-01-11",176.0,null,"2013-01-21","DISCONTINUED",null,"2012-07-20",null,null,null,null,null,null,null,"2013-01-25","Y","White",">64","NA",null,null,null,null],["CDISCPILOT01","01-703-1279","1279","2013-05-13","2013-06-22","2013-05-13","2013-06-03",null,"2013-06-22",null,null,"703",72.0,"YEARS","F","WHITE","NOT HISPANIC OR LATINO","Xan_Lo","Xanomeline Low Dose","Xan_Lo","Xanomeline Low Dose","USA","2013-04-27",-16.0,"Xanomeline Low Dose","Xanomeline Low Dose","2013-05-13T00:00:00","H","2013-06-03T23:59:59","H","2013-05-13","2013-06-03",22.0,null,"2013-06-22","DISCONTINUED",null,"2013-05-13",null,null,null,null,null,null,null,"2013-06-03","Y","White",">64","NA",null,null,null,null],["CDISCPILOT01","01-703-1295","1295","2013-11-21","2014-05-19","2013-11-21","2014-04-19",null,"2014-05-19T14:45",null,null,"703",88.0,"YEARS","F","WHITE","NOT HISPANIC OR LATINO","Xan_Hi","Xanomeline High Dose","Xan_Hi","Xanomeline High Dose","USA","2013-10-24",-28.0,"Xanomeline High Dose","Xanomeline High Dose","2013-11-21T00:00:00","H","2014-04-19T23:59:59","H","2013-11-21","2014-04-19",150.0,null,"2014-05-19","DISCONTINUED",null,"2013-11-21",null,null,null,null,null,null,null,"2014-05-19","Y","White",">64","NA",null,null,null,null],["CDISCPILOT01","01-703-1299","1299","2012-09-12","2013-03-13","2012-09-12","2013-03-13",null,"2013-03-27",null,null,"703",81.0,"YEARS","F","WHITE","NOT HISPANIC OR LATINO","Pbo","Placebo","Pbo","Placebo","USA","2012-09-07",-5.0,"Placebo","Placebo","2012-09-12T00:00:00","H","2013-03-13T23:59:59","H","2012-09-12","2013-03-13",183.0,null,"2013-03-13","COMPLETED",null,"2012-09-12",null,null,null,null,null,null,null,"2013-03-13","Y","White",">64","NA",null,null,null,null],["CDISCPILOT01","01-703-1335","1335","2014-03-17","2014-05-24","2014-03-17","2014-05-07",null,"2014-05-24T12:15",null,null,"703",67.0,"YEARS","F","BLACK OR AFRICAN AMERICAN","NOT HISPANIC OR LATINO","Xan_Hi","Xanomeline High Dose","Xan_Hi","Xanomeline High Dose","USA","2014-02-28",-17.0,"Xanomeline High Dose","Xanomeline High Dose","2014-03-17T00:00:00","H","2014-05-07T23:59:59","H","2014-03-17","2014-05-07",52.0,null,"2014-05-24","DISCONTINUED",null,"2014-03-17",null,null,null,null,null,null,null,"2014-05-24","Y","Non-white",">64","NA",null,null,null,null],["CDISCPILOT01","01-703-1379","1379","2013-09-22","2014-03-21","2013-09-22","2014-03-21",null,"2014-03-21T10:55",null,null,"703",81.0,"YEARS","F","BLACK OR AFRICAN AMERICAN","NOT HISPANIC OR LATINO","Xan_Lo","Xanomeline Low Dose","Xan_Lo","Xanomeline Low Dose","USA","2013-09-12",-10.0,"Xanomeline Low Dose","Xanomeline Low Dose","2013-09-22T00:00:00","H","2014-03-21T23:59:59","H","2013-09-22","2014-03-21",181.0,null,"2014-03-21","COMPLETED",null,"2013-09-22",null,null,null,null,null,null,null,"2014-03-21","Y","Non-white",">64","NA",null,null,null,null],["CDISCPILOT01","01-703-1396","1396",null,null,null,null,null,"2014-02-27",null,null,"703",84.0,"YEARS","M","ASIAN","NOT HISPANIC OR LATINO","Scrnfail","Screen Failure","Scrnfail","Screen Failure","USA","2014-02-09",null,"Screen Failure","Screen Failure",null,null,null,null,null,null,null,"2014-02-09",null,null,null,null,null,null,null,null,null,null,null,null,"N","Non-white",">64","NA",null,null,null,null],["CDISCPILOT01","01-703-1403","1403","2012-12-12","2012-12-19","2012-12-12","2012-12-13",null,"2013-01-08",null,null,"703",67.0,"YEARS","M","WHITE","NOT HISPANIC OR LATINO","Xan_Hi","Xanomeline High Dose","Xan_Lo","Xanomeline Low Dose","USA","2012-12-05",-7.0,"Xanomeline High Dose","Xanomeline Low Dose","2012-12-12T00:00:00","H","2012-12-13T23:59:59","H","2012-12-12","2012-12-13",2.0,null,"2012-12-19","DISCONTINUED",null,"2012-12-12",null,null,null,null,null,null,null,"2012-12-19","Y","White",">64","NA",null,null,null,null],["CDISCPILOT01","01-703-1439","1439","2014-03-12","2014-09-11","2014-03-12","2014-09-11",null,"2014-09-11T12:40",null,null,"703",76.0,"YEARS","F","WHITE","NOT HISPANIC OR LATINO","Xan_Hi","Xanomeline High Dose","Xan_Hi","Xanomeline High Dose","USA","2014-03-04",-8.0,"Xanomeline High Dose","Xanomeline High Dose","2014-03-12T00:00:00","H","2014-09-11T23:59:59","H","2014-03-12","2014-09-11",184.0,null,"2014-09-11","COMPLETED",null,"2014-03-12",null,null,null,null,null,null,null,"2014-09-11","Y","White",">64","NA",null,null,null,null],["CDISCPILOT01","01-704-1008","1008","2013-01-13","2013-02-25","2013-01-13","2013-02-21",null,"2013-02-25T11:00",null,null,"704",76.0,"YEARS","F","WHITE","NOT HISPANIC OR LATINO","Xan_Hi","Xanomeline High Dose","Xan_Hi","Xanomeline High Dose","USA","2013-01-06",-7.0,"Xanomeline High Dose","Xanomeline High Dose","2013-01-13T00:00:00","H","2013-02-21T23:59:59","H","2013-01-13","2013-02-21",40.0,null,"2013-02-25","DISCONTINUED",null,"2013-01-13",null,null,null,null,null,null,null,"2013-02-25","Y","White",">64","NA",null,null,null,null],["CDISCPILOT01","01-704-1009","1009","2013-08-27","2013-10-02","2013-08-27","2013-09-25",null,"2013-10-02",null,null,"704",83.0,"YEARS","M","WHITE","NOT HISPANIC OR LATINO","Xan_Lo","Xanomeline Low Dose","Xan_Lo","Xanomeline Low Dose","USA","2013-08-20",-7.0,"Xanomeline Low Dose","Xanomeline Low Dose","2013-08-27T00:00:00","H","2013-09-25T23:59:59","H","2013-08-27","2013-09-25",30.0,null,"2013-10-02","DISCONTINUED",null,"2013-08-27",null,null,null,null,null,null,null,"2013-09-27","Y","White",">64","NA",null,null,null,null],["CDISCPILOT01","01-704-1010","1010","2014-02-21","2014-07-09","2014-02-21","2014-07-08",null,"2014-07-09T11:00",null,null,"704",80.0,"YEARS","M","WHITE","NOT HISPANIC OR LATINO","Pbo","Placebo","Pbo","Placebo","USA","2014-02-08",-13.0,"Placebo","Placebo","2014-02-21T00:00:00","H","2014-07-08T23:59:59","H","2014-02-21","2014-07-08",138.0,null,"2014-07-09","DISCONTINUED",null,"2014-02-21",null,null,null,null,null,null,null,"2014-07-09","Y","White",">64","NA",null,null,null,null],["CDISCPILOT01","01-704-1017","1017","2013-10-06","2013-11-24","2013-10-06","2013-11-18",null,"2013-12-06",null,null,"704",77.0,"YEARS","M","WHITE","NOT HISPANIC OR LATINO","Xan_Hi","Xanomeline High Dose","Xan_Hi","Xanomeline High Dose","USA","2013-09-20",-16.0,"Xanomeline High Dose","Xanomeline High Dose","2013-10-06T00:00:00","H","2013-11-18T23:59:59","H","2013-10-06","2013-11-18",44.0,null,"2013-11-24","DISCONTINUED",null,"2013-10-06",null,null,null,null,null,null,null,"2013-11-22","Y","White",">64","NA",null,null,null,null],["CDISCPILOT01","01-704-1025","1025","2013-09-27","2013-11-29","2013-09-27","2013-10-24",null,"2013-11-29T12:00",null,null,"704",81.0,"YEARS","F","WHITE","NOT HISPANIC OR LATINO","Xan_Lo","Xanomeline Low Dose","Xan_Lo","Xanomeline Low Dose","USA","2013-09-18",-9.0,"Xanomeline Low Dose","Xanomeline Low Dose","2013-09-27T00:00:00","H","2013-10-24T23:59:59","H","2013-09-27","2013-10-24",28.0,null,"2013-11-29","DISCONTINUED",null,"2013-09-27",null,null,null,null,null,null,null,"2013-11-29","Y","White",">64","NA",null,null,null,null],["CDISCPILOT01","01-704-1065","1065","2013-10-24","2013-12-24","2013-10-24","2013-12-22",null,"2014-02-17",null,null,"704",75.0,"YEARS","M","WHITE","NOT HISPANIC OR LATINO","Xan_Hi","Xanomeline High Dose","Xan_Hi","Xanomeline High Dose","USA","2013-10-17",-7.0,"Xanomeline High Dose","Xanomeline High Dose","2013-10-24T00:00:00","H","2013-12-22T23:59:59","H","2013-10-24","2013-12-22",60.0,null,"2013-12-24","DISCONTINUED",null,"2013-10-24",null,null,null,null,null,null,null,"2013-12-24","Y","White",">64","NA",null,null,null,null],["CDISCPILOT01","01-704-1074","1074","2014-01-22","2014-03-31","2014-01-22","2014-03-20",null,"2014-03-31T10:30",null,null,"704",80.0,"YEARS","F","WHITE","NOT HISPANIC OR LATINO","Xan_Hi","Xanomeline High Dose","Xan_Hi","Xanomeline High Dose","USA","2014-01-19",-3.0,"Xanomeline High Dose","Xanomeline High Dose","2014-01-22T00:00:00","H","2014-03-20T23:59:59","H","2014-01-22","2014-03-20",58.0,null,"2014-03-31","DISCONTINUED",null,"2014-01-22",null,null,null,null,null,null,null,"2014-03-31","Y","White",">64","NA",null,null,null,null],["CDISCPILOT01","01-704-1093","1093","2013-03-15","2013-06-20","2013-03-15","2013-06-17",null,"2013-12-25",null,null,"704",79.0,"YEARS","M","WHITE","NOT HISPANIC OR LATINO","Xan_Hi","Xanomeline High Dose","Xan_Hi","Xanomeline High Dose","USA","2013-02-22",-21.0,"Xanomeline High Dose","Xanomeline High Dose","2013-03-15T00:00:00","H","2013-06-17T23:59:59","H","2013-03-15","2013-06-17",95.0,null,"2013-06-20","DISCONTINUED","2013-12-25","2013-03-15",null,null,null,null,null,null,null,"2013-06-20","Y","White",">64","NA",null,null,null,null],["CDISCPILOT01","01-704-1114","1114","2013-01-23","2013-07-08","2013-01-23","2013-07-07",null,"2013-07-08T09:56",null,null,"704",77.0,"YEARS","M","WHITE","NOT HISPANIC OR LATINO","Xan_Lo","Xanomeline Low Dose","Xan_Lo","Xanomeline Low Dose","USA","2013-01-09",-14.0,"Xanomeline Low Dose","Xanomeline Low Dose","2013-01-23T00:00:00","H","2013-07-07T23:59:59","H","2013-01-23","2013-07-07",166.0,null,"2013-07-08","DISCONTINUED",null,"2013-01-23",null,null,null,null,null,null,null,"2013-07-08","Y","White",">64","NA",null,null,null,null],["CDISCPILOT01","01-704-1120","1120","2013-12-02","2014-02-03","2013-12-02","2014-02-01",null,"2014-03-10",null,null,"704",71.0,"YEARS","F","WHITE","NOT HISPANIC OR LATINO","Xan_Lo","Xanomeline Low Dose","Xan_Lo","Xanomeline Low Dose","USA","2013-11-18",-14.0,"Xanomeline Low Dose","Xanomeline Low Dose","2013-12-02T00:00:00","H","2014-02-01T23:59:59","H","2013-12-02","2014-02-01",62.0,null,"2014-02-03","DISCONTINUED",null,"2013-12-02",null,null,null,null,null,null,null,"2014-02-03","Y","White",">64","NA",null,null,null,null],["CDISCPILOT01","01-704-1127","1127","2013-10-02","2014-03-31","2013-10-02","2014-03-31",null,"2014-03-31T11:30",null,null,"704",84.0,"YEARS","F","WHITE","NOT HISPANIC OR LATINO","Pbo","Placebo","Pbo","Placebo","USA","2013-09-16",-16.0,"Placebo","Placebo","2013-10-02T00:00:00","H","2014-03-31T23:59:59","H","2013-10-02","2014-03-31",181.0,null,"2014-03-31","COMPLETED",null,"2013-10-02",null,null,null,null,null,null,null,"2014-03-31","Y","White",">64","NA",null,null,null,null],["CDISCPILOT01","01-704-1135","1135","2013-10-31","2014-05-16","2013-10-31","2014-05-16",null,"2014-05-16T09:45",null,null,"704",74.0,"YEARS","F","WHITE","NOT HISPANIC OR LATINO","Xan_Lo","Xanomeline Low Dose","Xan_Lo","Xanomeline Low Dose","USA","2013-10-23",-8.0,"Xanomeline Low Dose","Xanomeline Low Dose","2013-10-31T00:00:00","H","2014-05-16T23:59:59","H","2013-10-31","2014-05-16",198.0,null,"2014-05-16","COMPLETED",null,"2013-10-31",null,null,null,null,null,null,null,"2014-05-16","Y","White",">64","NA",null,null,null,null],["CDISCPILOT01","01-704-1164","1164","2012-09-19","2013-04-04","2012-09-19","2013-04-04",null,"2013-04-04",null,null,"704",67.0,"YEARS","F","WHITE","NOT HISPANIC OR LATINO","Pbo","Placebo","Pbo","Placebo","USA","2012-09-11",-8.0,"Placebo","Placebo","2012-09-19T00:00:00","H","2013-04-04T23:59:59","H","2012-09-19","2013-04-04",198.0,null,"2013-04-04","COMPLETED",null,"2012-09-19",null,null,null,null,null,null,null,"2013-04-04","Y","White",">64","NA",null,null,null,null],["CDISCPILOT01","01-704-1218","1218","2012-11-19","2013-05-27","2012-11-19","2013-05-27",null,"2013-05-27T11:20",null,null,"704",81.0,"YEARS","F","WHITE","NOT HISPANIC OR LATINO","Xan_Lo","Xanomeline Low Dose","Xan_Lo","Xanomeline Low Dose","USA","2012-11-11",-8.0,"Xanomeline Low Dose","Xanomeline Low Dose","2012-11-19T00:00:00","H","2013-05-27T23:59:59","H","2012-11-19","2013-05-27",190.0,null,"2013-05-27","COMPLETED",null,"2012-11-19",null,null,null,null,null,null,null,"2013-05-27","Y","White",">64","NA",null,null,null,null],["CDISCPILOT01","01-704-1233","1233","2013-03-21","2013-07-14","2013-03-21","2013-04-04",null,"2013-07-14",null,null,"704",87.0,"YEARS","F","WHITE","NOT HISPANIC OR LATINO","Pbo","Placebo","Pbo","Placebo","USA","2013-03-08",-13.0,"Placebo","Placebo","2013-03-21T00:00:00","H","2013-04-04T23:59:59","H","2013-03-21","2013-04-04",15.0,null,"2013-07-14","DISCONTINUED",null,"2013-03-21",null,null,null,null,null,null,null,"2013-07-11","Y","White",">64","NA",null,null,null,null],["CDISCPILOT01","01-704-1241","1241","2013-08-25","2013-10-31","2013-08-25","2013-10-09",null,"2014-01-22",null,null,"704",86.0,"YEARS","M","WHITE","NOT HISPANIC OR LATINO","Xan_Hi","Xanomeline High Dose","Xan_Hi","Xanomeline High Dose","USA","2013-08-14",-11.0,"Xanomeline High Dose","Xanomeline High Dose","2013-08-25T00:00:00","H","2013-10-09T23:59:59","H","2013-08-25","2013-10-09",46.0,null,"2013-10-31","DISCONTINUED",null,"2013-08-25",null,null,null,null,null,null,null,"2013-10-31","Y","White",">64","NA",null,null,null,null],["CDISCPILOT01","01-704-1260","1260","2012-08-30","2013-01-18","2012-08-30","2012-11-04",null,"2013-01-18",null,null,"704",71.0,"YEARS","F","WHITE","NOT HISPANIC OR LATINO","Pbo","Placebo","Pbo","Placebo","USA","2012-08-23",-7.0,"Placebo","Placebo","2012-08-30T00:00:00","H","2012-11-04T23:59:59","H","2012-08-30","2012-11-04",67.0,null,"2013-01-18","DISCONTINUED",null,"2012-08-30",null,null,null,null,null,null,null,"2012-11-04","Y","White",">64","NA",null,null,null,null],["CDISCPILOT01","01-704-1266","1266","2013-10-13","2013-12-06","2013-10-13","2013-12-06",null,"2014-01-03",null,null,"704",82.0,"YEARS","M","WHITE","NOT HISPANIC OR LATINO","Xan_Hi","Xanomeline High Dose","Xan_Hi","Xanomeline High Dose","USA","2013-10-05",-8.0,"Xanomeline High Dose","Xanomeline High Dose","2013-10-13T00:00:00","H","2013-12-06T23:59:59","H","2013-10-13","2013-12-06",55.0,null,"2013-12-06","DISCONTINUED",null,"2013-10-13",null,null,null,null,null,null,null,"2013-12-23","Y","White",">64","NA",null,null,null,null],["CDISCPILOT01","01-704-1323","1323","2013-07-08","2013-08-08","2013-07-08","2013-08-05",null,"2013-10-01",null,null,"704",68.0,"YEARS","F","WHITE","NOT HISPANIC OR LATINO","Xan_Lo","Xanomeline Low Dose","Xan_Lo","Xanomeline Low Dose","USA","2013-06-13",-25.0,"Xanomeline Low Dose","Xanomeline Low Dose","2013-07-08T00:00:00","H","2013-08-05T23:59:59","H","2013-07-08","2013-08-05",29.0,null,"2013-08-08","DISCONTINUED",null,"2013-07-08",null,null,null,null,null,null,null,"2013-08-05","Y","White",">64","NA",null,null,null,null],["CDISCPILOT01","01-704-1325","1325","2014-04-23","2014-08-06","2014-04-23","2014-07-04",null,"2014-08-06T13:30",null,null,"704",81.0,"YEARS","M","WHITE","NOT HISPANIC OR LATINO","Xan_Lo","Xanomeline Low Dose","Xan_Lo","Xanomeline Low Dose","USA","2014-04-16",-7.0,"Xanomeline Low Dose","Xanomeline Low Dose","2014-04-23T00:00:00","H","2014-07-04T23:59:59","H","2014-04-23","2014-07-04",73.0,null,"2014-08-06","DISCONTINUED",null,"2014-04-23",null,null,null,null,null,null,null,"2014-08-06","Y","White",">64","NA",null,null,null,null],["CDISCPILOT01","01-704-1332","1332","2013-12-09","2014-02-16","2013-12-09","2014-02-14",null,"2014-02-24",null,null,"704",80.0,"YEARS","M","WHITE","NOT HISPANIC OR LATINO","Xan_Hi","Xanomeline High Dose","Xan_Hi","Xanomeline High Dose","USA","2013-11-24",-15.0,"Xanomeline High Dose","Xanomeline High Dose","2013-12-09T00:00:00","H","2014-02-14T23:59:59","H","2013-12-09","2014-02-14",68.0,null,"2014-02-16","DISCONTINUED",null,"2013-12-09",null,null,null,null,null,null,null,"2014-02-24","Y","White",">64","NA",null,null,null,null],["CDISCPILOT01","01-704-1351","1351","2013-10-12","2014-04-18","2013-10-12","2014-04-18",null,"2014-04-18T10:30",null,null,"704",70.0,"YEARS","M","WHITE","NOT HISPANIC OR LATINO","Pbo","Placebo","Pbo","Placebo","USA","2013-09-26",-16.0,"Placebo","Placebo","2013-10-12T00:00:00","H","2014-04-18T23:59:59","H","2013-10-12","2014-04-18",189.0,null,"2014-04-18","COMPLETED",null,"2013-10-12",null,null,null,null,null,null,null,"2014-04-18","Y","White",">64","NA",null,null,null,null],["CDISCPILOT01","01-704-1388","1388","2012-12-07","2013-06-19","2012-12-07","2013-06-11",null,"2013-06-19T12:30",null,null,"704",81.0,"YEARS","M","WHITE","NOT HISPANIC OR LATINO","Pbo","Placebo","Pbo","Placebo","USA","2012-11-28",-9.0,"Placebo","Placebo","2012-12-07T00:00:00","H","2013-06-11T23:59:59","H","2012-12-07","2013-06-11",187.0,null,"2013-06-19","COMPLETED",null,"2012-12-07",null,null,null,null,null,null,null,"2013-06-19","Y","White",">64","NA",null,null,null,null],["CDISCPILOT01","01-704-1435","1435","2012-11-17","2013-01-12","2012-11-17","2013-01-09",null,"2013-01-12T12:00",null,null,"704",74.0,"YEARS","M","WHITE","NOT HISPANIC OR LATINO","Pbo","Placebo","Pbo","Placebo","USA","2012-11-01",-16.0,"Placebo","Placebo","2012-11-17T00:00:00","H","2013-01-09T23:59:59","H","2012-11-17","2013-01-09",54.0,null,"2013-01-12","DISCONTINUED",null,"2012-11-17",null,null,null,null,null,null,null,"2013-01-12","Y","White",">64","NA",null,null,null,null],["CDISCPILOT01","01-704-1445","1445","2014-05-11","2014-11-01","2014-05-11","2014-11-01",null,"2014-11-01","2014-11-01","Y","704",75.0,"YEARS","M","WHITE","NOT HISPANIC OR LATINO","Pbo","Placebo","Pbo","Placebo","USA","2014-05-01",-10.0,"Placebo","Placebo","2014-05-11T00:00:00","H","2014-11-01T23:59:59","H","2014-05-11","2014-11-01",175.0,null,"2014-11-01","DISCONTINUED",null,"2014-05-11","2014-11-01",null,175.0,0.0,"COMPLETED SUICIDE","AE","ADVERSE EVENT","2014-11-01","Y","White",">64","NA","<= 30","Y",null,null],["CDISCPILOT01","01-705-1011","1011",null,null,null,null,null,"2013-09-13",null,null,"705",75.0,"YEARS","F","WHITE","NOT HISPANIC OR LATINO","Scrnfail","Screen Failure","Scrnfail","Screen Failure","USA","2013-09-01",null,"Screen Failure","Screen Failure",null,null,null,null,null,null,null,"2013-09-01",null,null,null,null,null,null,null,null,null,null,null,null,"N","White",">64","NA",null,null,null,null],["CDISCPILOT01","01-705-1018","1018","2013-07-05","2013-07-12","2013-07-05",null,null,"2013-07-12",null,null,"705",69.0,"YEARS","F","WHITE","NOT HISPANIC OR LATINO","Pbo","Placebo","Pbo","Placebo","USA","2013-06-30",-5.0,"Placebo","Placebo","2013-07-05T00:00:00","H",null,null,"2013-07-05",null,null,null,"2013-07-12","DISCONTINUED",null,"2013-07-05",null,null,null,null,null,null,null,"2013-06-30","Y","White",">64","NA",null,null,null,null],["CDISCPILOT01","01-705-1031","1031","2013-11-27","2014-05-11","2013-11-27","2013-12-18",null,"2014-05-11T09:55",null,null,"705",56.0,"YEARS","F","WHITE","HISPANIC OR LATINO","Xan_Lo","Xanomeline Low Dose","Xan_Lo","Xanomeline Low Dose","USA","2013-11-17",-10.0,"Xanomeline Low Dose","Xanomeline Low Dose","2013-11-27T00:00:00","H","2013-12-18T23:59:59","H","2013-11-27","2013-12-18",22.0,null,"2014-05-11","DISCONTINUED",null,"2013-11-27",null,null,null,null,null,null,null,"2014-05-11","Y","White","18-64","NA",null,null,null,null],["CDISCPILOT01","01-705-1058","1058",null,null,null,null,null,"2013-12-06",null,null,"705",89.0,"YEARS","M","WHITE","NOT HISPANIC OR LATINO","Scrnfail","Screen Failure","Scrnfail","Screen Failure","USA","2013-12-02",null,"Screen Failure","Screen Failure",null,null,null,null,null,null,null,"2013-12-02",null,null,null,null,null,null,null,null,null,null,null,null,"N","White",">64","NA",null,null,null,null],["CDISCPILOT01","01-705-1059","1059","2013-08-05","2013-12-05","2013-08-05","2013-12-05",null,"2014-02-06",null,null,"705",66.0,"YEARS","F","WHITE","NOT HISPANIC OR LATINO","Pbo","Placebo","Pbo","Placebo","USA","2013-08-02",-3.0,"Placebo","Placebo","2013-08-05T00:00:00","H","2013-12-05T23:59:59","H","2013-08-05","2013-12-05",123.0,null,"2013-12-05","DISCONTINUED","2014-02-06","2013-08-05",null,null,null,null,null,null,null,"2013-12-05","Y","White",">64","NA",null,null,null,null],["CDISCPILOT01","01-705-1112","1112",null,null,null,null,null,"2014-02-24",null,null,"705",78.0,"YEARS","M","WHITE","NOT HISPANIC OR LATINO","Scrnfail","Screen Failure","Scrnfail","Screen Failure","USA","2014-02-23",null,"Screen Failure","Screen Failure",null,null,null,null,null,null,null,"2014-02-23",null,null,null,null,null,null,null,null,null,null,null,null,"N","White",">64","NA",null,null,null,null],["CDISCPILOT01","01-705-1186","1186","2014-01-08","2014-02-07","2014-01-08","2014-01-26",null,"2014-02-07T15:20",null,null,"705",84.0,"YEARS","F","WHITE","NOT HISPANIC OR LATINO","Pbo","Placebo","Pbo","Placebo","USA","2014-01-03",-5.0,"Placebo","Placebo","2014-01-08T00:00:00","H","2014-01-26T23:59:59","H","2014-01-08","2014-01-26",19.0,null,"2014-02-07","DISCONTINUED",null,"2014-01-08",null,null,null,null,null,null,null,"2014-02-07","Y","White",">64","NA",null,null,null,null],["CDISCPILOT01","01-705-1199","1199","2013-09-16","2013-09-29","2013-09-16","2013-09-28",null,"2013-09-29T10:30",null,null,"705",87.0,"YEARS","M","WHITE","NOT HISPANIC OR LATINO","Xan_Lo","Xanomeline Low Dose","Xan_Lo","Xanomeline Low Dose","USA","2013-09-11",-5.0,"Xanomeline Low Dose","Xanomeline Low Dose","2013-09-16T00:00:00","H","2013-09-28T23:59:59","H","2013-09-16","2013-09-28",13.0,null,"2013-09-29","DISCONTINUED",null,"2013-09-16",null,null,null,null,null,null,null,"2013-09-29","Y","White",">64","NA",null,null,null,null],["CDISCPILOT01","01-705-1243","1243",null,null,null,null,null,"2013-03-04",null,null,"705",70.0,"YEARS","F","WHITE","HISPANIC OR LATINO","Scrnfail","Screen Failure","Scrnfail","Screen Failure","USA","2013-02-26",null,"Screen Failure","Screen Failure",null,null,null,null,null,null,null,"2013-02-26",null,null,null,null,null,null,null,null,null,null,null,null,"N","White",">64","NA",null,null,null,null],["CDISCPILOT01","01-705-1280","1280","2014-01-17","2014-07-25","2014-01-17","2014-07-25",null,"2014-07-25",null,null,"705",56.0,"YEARS","F","WHITE","NOT HISPANIC OR LATINO","Xan_Hi","Xanomeline High Dose","Xan_Hi","Xanomeline High Dose","USA","2014-01-11",-6.0,"Xanomeline High Dose","Xanomeline High Dose","2014-01-17T00:00:00","H","2014-07-25T23:59:59","H","2014-01-17","2014-07-25",190.0,null,"2014-07-25","COMPLETED",null,"2014-01-17",null,null,null,null,null,null,null,"2014-07-25","Y","White","18-64","NA",null,null,null,null],["CDISCPILOT01","01-705-1281","1281","2013-11-28","2014-03-17","2013-11-28","2014-02-27",null,"2014-04-20",null,null,"705",73.0,"YEARS","F","BLACK OR AFRICAN AMERICAN","NOT HISPANIC OR LATINO","Xan_Hi","Xanomeline High Dose","Xan_Hi","Xanomeline High Dose","USA","2013-11-26",-2.0,"Xanomeline High Dose","Xanomeline High Dose","2013-11-28T00:00:00","H","2014-02-27T23:59:59","H","2013-11-28","2014-02-27",92.0,null,"2014-03-17","DISCONTINUED",null,"2013-11-28",null,null,null,null,null,null,null,"2014-03-17","Y","Non-white",">64","NA",null,null,null,null],["CDISCPILOT01","01-705-1282","1282","2012-12-26","2013-06-24","2012-12-26","2013-06-24",null,"2013-06-24T15:25",null,null,"705",70.0,"YEARS","F","BLACK OR AFRICAN AMERICAN","NOT HISPANIC OR LATINO","Pbo","Placebo","Pbo","Placebo","USA","2012-12-23",-3.0,"Placebo","Placebo","2012-12-26T00:00:00","H","2013-06-24T23:59:59","H","2012-12-26","2013-06-24",181.0,null,"2013-06-24","COMPLETED",null,"2012-12-26",null,null,null,null,null,null,null,"2013-06-24","Y","Non-white",">64","NA",null,null,null,null],["CDISCPILOT01","01-705-1292","1292","2013-10-14","2014-05-14","2013-10-14","2014-05-13",null,"2014-05-14T13:33",null,null,"705",60.0,"YEARS","F","BLACK OR AFRICAN AMERICAN","NOT HISPANIC OR LATINO","Xan_Lo","Xanomeline Low Dose","Xan_Lo","Xanomeline Low Dose","USA","2013-10-11",-3.0,"Xanomeline Low Dose","Xanomeline Low Dose","2013-10-14T00:00:00","H","2014-05-13T23:59:59","H","2013-10-14","2014-05-13",212.0,null,"2014-05-14","COMPLETED",null,"2013-10-14",null,null,null,null,null,null,null,"2014-05-14","Y","Non-white","18-64","NA",null,null,null,null],["CDISCPILOT01","01-705-1303","1303","2013-12-16","2014-06-02","2013-12-16","2013-12-30",null,"2014-06-02",null,null,"705",72.0,"YEARS","M","WHITE","NOT HISPANIC OR LATINO","Xan_Hi","Xanomeline High Dose","Xan_Hi","Xanomeline High Dose","USA","2013-12-10",-6.0,"Xanomeline High Dose","Xanomeline High Dose","2013-12-16T00:00:00","H","2013-12-30T23:59:59","H","2013-12-16","2013-12-30",15.0,null,"2014-06-02","DISCONTINUED",null,"2013-12-16",null,null,null,null,null,null,null,"2014-04-07","Y","White",">64","NA",null,null,null,null],["CDISCPILOT01","01-705-1310","1310","2013-11-02","2014-01-23","2013-11-02","2014-01-23",null,"2014-02-24",null,null,"705",74.0,"YEARS","F","WHITE","NOT HISPANIC OR LATINO","Xan_Hi","Xanomeline High Dose","Xan_Hi","Xanomeline High Dose","USA","2013-10-26",-7.0,"Xanomeline High Dose","Xanomeline High Dose","2013-11-02T00:00:00","H","2014-01-23T23:59:59","H","2013-11-02","2014-01-23",83.0,null,"2014-01-23","DISCONTINUED",null,"2013-11-02",null,null,null,null,null,null,null,"2014-01-23","Y","White",">64","NA",null,null,null,null],["CDISCPILOT01","01-705-1349","1349","2013-03-10","2013-09-08","2013-03-10","2013-09-08",null,"2013-09-08T10:10",null,null,"705",86.0,"YEARS","F","WHITE","HISPANIC OR LATINO","Pbo","Placebo","Pbo","Placebo","USA","2013-02-24",-14.0,"Placebo","Placebo","2013-03-10T00:00:00","H","2013-09-08T23:59:59","H","2013-03-10","2013-09-08",183.0,null,"2013-09-08","COMPLETED",null,"2013-03-10",null,null,null,null,null,null,null,"2013-09-08","Y","White",">64","NA",null,null,null,null],["CDISCPILOT01","01-705-1377","1377","2014-01-04","2014-03-07","2014-01-04","2014-01-25",null,"2014-03-07",null,null,"705",63.0,"YEARS","F","BLACK OR AFRICAN AMERICAN","NOT HISPANIC OR LATINO","Xan_Hi","Xanomeline High Dose","Xan_Hi","Xanomeline High Dose","USA","2013-12-29",-6.0,"Xanomeline High Dose","Xanomeline High Dose","2014-01-04T00:00:00","H","2014-01-25T23:59:59","H","2014-01-04","2014-01-25",22.0,null,"2014-03-07","DISCONTINUED",null,"2014-01-04",null,null,null,null,null,null,null,"2014-02-07","Y","Non-white","18-64","NA",null,null,null,null],["CDISCPILOT01","01-705-1382","1382","2013-05-13","2013-05-13","2013-05-13",null,null,"2013-05-13",null,null,"705",82.0,"YEARS","M","WHITE","NOT HISPANIC OR LATINO","Xan_Hi","Xanomeline High Dose","Xan_Lo","Xanomeline Low Dose","USA","2013-05-09",-4.0,"Xanomeline High Dose","Xanomeline Low Dose","2013-05-13T00:00:00","H",null,null,"2013-05-13",null,null,null,"2013-05-13","DISCONTINUED",null,"2013-05-13",null,null,null,null,null,null,null,"2013-05-09","Y","White",">64","NA",null,null,null,null],["CDISCPILOT01","01-705-1393","1393","2012-09-07","2013-02-20","2012-09-07","2013-02-01",null,"2013-04-25",null,null,"705",84.0,"YEARS","F","WHITE","NOT HISPANIC OR LATINO","Xan_Lo","Xanomeline Low Dose","Xan_Lo","Xanomeline Low Dose","USA","2012-09-02",-5.0,"Xanomeline Low Dose","Xanomeline Low Dose","2012-09-07T00:00:00","H","2013-02-01T23:59:59","H","2012-09-07","2013-02-01",148.0,null,"2013-02-20","DISCONTINUED",null,"2012-09-07",null,null,null,null,null,null,null,"2013-02-20","Y","White",">64","NA",null,null,null,null],["CDISCPILOT01","01-705-1421","1421",null,null,null,null,null,"2013-01-16",null,null,"705",87.0,"YEARS","M","WHITE","NOT HISPANIC OR LATINO","Scrnfail","Screen Failure","Scrnfail","Screen Failure","USA","2013-01-14",null,"Screen Failure","Screen Failure",null,null,null,null,null,null,null,"2013-01-14",null,null,null,null,null,null,null,null,null,null,null,null,"N","White",">64","NA",null,null,null,null],["CDISCPILOT01","01-705-1431","1431","2013-06-23","2013-12-19","2013-06-23","2013-12-19",null,"2013-12-19T10:05",null,null,"705",68.0,"YEARS","F","WHITE","HISPANIC OR LATINO","Xan_Lo","Xanomeline Low Dose","Xan_Lo","Xanomeline Low Dose","USA","2013-06-16",-7.0,"Xanomeline Low Dose","Xanomeline Low Dose","2013-06-23T00:00:00","H","2013-12-19T23:59:59","H","2013-06-23","2013-12-19",180.0,null,"2013-12-19","COMPLETED",null,"2013-06-23",null,null,null,null,null,null,null,"2013-12-19","Y","White",">64","NA",null,null,null,null],["CDISCPILOT01","01-706-1041","1041","2013-12-31","2014-07-29","2013-12-31","2014-07-28",null,"2014-07-29T13:45",null,null,"706",64.0,"YEARS","F","BLACK OR AFRICAN AMERICAN","NOT HISPANIC OR LATINO","Pbo","Placebo","Pbo","Placebo","USA","2013-12-21",-10.0,"Placebo","Placebo","2013-12-31T00:00:00","H","2014-07-28T23:59:59","H","2013-12-31","2014-07-28",210.0,null,"2014-07-29","COMPLETED",null,"2013-12-31",null,null,null,null,null,null,null,"2014-07-29","Y","Non-white","18-64","NA",null,null,null,null],["CDISCPILOT01","01-706-1049","1049","2013-05-14","2013-06-25","2013-05-14","2013-06-18",null,"2013-11-26",null,null,"706",60.0,"YEARS","F","WHITE","NOT HISPANIC OR LATINO","Xan_Hi","Xanomeline High Dose","Xan_Hi","Xanomeline High Dose","USA","2013-04-30",-14.0,"Xanomeline High Dose","Xanomeline High Dose","2013-05-14T00:00:00","H","2013-06-18T23:59:59","H","2013-05-14","2013-06-18",36.0,null,"2013-06-25","DISCONTINUED","2013-11-26","2013-05-14",null,null,null,null,null,null,null,"2013-06-25","Y","White","18-64","NA",null,null,null,null],["CDISCPILOT01","01-706-1384","1384","2012-09-15","2012-09-29","2012-09-15","2012-09-24",null,"2013-06-22",null,null,"706",74.0,"YEARS","F","WHITE","NOT HISPANIC OR LATINO","Xan_Lo","Xanomeline Low Dose","Xan_Lo","Xanomeline Low Dose","USA","2012-08-25",-21.0,"Xanomeline Low Dose","Xanomeline Low Dose","2012-09-15T00:00:00","H","2012-09-24T23:59:59","H","2012-09-15","2012-09-24",10.0,null,"2012-09-29","DISCONTINUED","2013-06-22","2012-09-15",null,null,null,null,null,null,null,"2012-09-29","Y","White",">64","NA",null,null,null,null],["CDISCPILOT01","01-707-1037","1037","2013-12-20","2014-01-08","2013-12-20","2013-12-24",null,"2014-01-08T12:40",null,null,"707",72.0,"YEARS","F","WHITE","NOT HISPANIC OR LATINO","Xan_Lo","Xanomeline Low Dose","Xan_Lo","Xanomeline Low Dose","USA","2013-12-12",-8.0,"Xanomeline Low Dose","Xanomeline Low Dose","2013-12-20T00:00:00","H","2013-12-24T23:59:59","H","2013-12-20","2013-12-24",5.0,null,"2014-01-08","DISCONTINUED",null,"2013-12-20",null,null,null,null,null,null,null,"2014-01-08","Y","White",">64","NA",null,null,null,null],["CDISCPILOT01","01-707-1206","1206","2013-10-28","2014-04-27","2013-10-28","2014-04-26",null,"2014-04-27T08:00",null,null,"707",65.0,"YEARS","M","WHITE","NOT HISPANIC OR LATINO","Pbo","Placebo","Pbo","Placebo","USA","2013-10-20",-8.0,"Placebo","Placebo","2013-10-28T00:00:00","H","2014-04-26T23:59:59","H","2013-10-28","2014-04-26",181.0,null,"2014-04-27","COMPLETED",null,"2013-10-28",null,null,null,null,null,null,null,"2014-04-27","Y","White",">64","NA",null,null,null,null],["CDISCPILOT01","01-707-1276","1276",null,null,null,null,null,"2012-10-29",null,null,"707",72.0,"YEARS","F","WHITE","NOT HISPANIC OR LATINO","Scrnfail","Screen Failure","Scrnfail","Screen Failure","USA","2012-10-12",null,"Screen Failure","Screen Failure",null,null,null,null,null,null,null,"2012-10-12",null,null,null,null,null,null,null,null,null,null,null,null,"N","White",">64","NA",null,null,null,null],["CDISCPILOT01","01-707-1430","1430",null,null,null,null,null,"2014-02-15",null,null,"707",81.0,"YEARS","F","WHITE","NOT HISPANIC OR LATINO","Scrnfail","Screen Failure","Scrnfail","Screen Failure","USA","2014-02-14",null,"Screen Failure","Screen Failure",null,null,null,null,null,null,null,"2014-02-14",null,null,null,null,null,null,null,null,null,null,null,null,"N","White",">64","NA",null,null,null,null],["CDISCPILOT01","01-707-1434","1434",null,null,null,null,null,"2013-07-29",null,null,"707",76.0,"YEARS","F","WHITE","NOT HISPANIC OR LATINO","Scrnfail","Screen Failure","Scrnfail","Screen Failure","USA","2013-07-25",null,"Screen Failure","Screen Failure",null,null,null,null,null,null,null,"2013-07-25",null,null,null,null,null,null,null,null,null,null,null,null,"N","White",">64","NA",null,null,null,null],["CDISCPILOT01","01-708-1013","1013",null,null,null,null,null,"2012-11-09",null,null,"708",80.0,"YEARS","M","WHITE","NOT HISPANIC OR LATINO","Scrnfail","Screen Failure","Scrnfail","Screen Failure","USA","2012-10-13",null,"Screen Failure","Screen Failure",null,null,null,null,null,null,null,"2012-10-13",null,null,null,null,null,null,null,null,null,null,null,null,"N","White",">64","NA",null,null,null,null],["CDISCPILOT01","01-708-1019","1019","2013-12-20","2014-01-23","2013-12-20","2014-01-01",null,"2014-01-23T10:10",null,null,"708",68.0,"YEARS","M","WHITE","NOT HISPANIC OR LATINO","Xan_Lo","Xanomeline Low Dose","Xan_Lo","Xanomeline Low Dose","USA","2013-12-10",-10.0,"Xanomeline Low Dose","Xanomeline Low Dose","2013-12-20T00:00:00","H","2014-01-01T23:59:59","H","2013-12-20","2014-01-01",13.0,null,"2014-01-23","DISCONTINUED",null,"2013-12-20",null,null,null,null,null,null,null,"2014-01-23","Y","White",">64","NA",null,null,null,null],["CDISCPILOT01","01-708-1032","1032","2013-02-09","2013-03-09","2013-02-09","2013-03-01",null,"2013-03-09T10:45",null,null,"708",62.0,"YEARS","M","WHITE","NOT HISPANIC OR LATINO","Xan_Lo","Xanomeline Low Dose","Xan_Lo","Xanomeline Low Dose","USA","2013-02-02",-7.0,"Xanomeline Low Dose","Xanomeline Low Dose","2013-02-09T00:00:00","H","2013-03-01T23:59:59","H","2013-02-09","2013-03-01",21.0,null,"2013-03-09","DISCONTINUED",null,"2013-02-09",null,null,null,null,null,null,null,"2013-03-09","Y","White","18-64","NA",null,null,null,null],["CDISCPILOT01","01-708-1054","1054",null,null,null,null,null,"2014-03-05",null,null,"708",73.0,"YEARS","F","BLACK OR AFRICAN AMERICAN","NOT HISPANIC OR LATINO","Scrnfail","Screen Failure","Scrnfail","Screen Failure","USA","2014-02-14",null,"Screen Failure","Screen Failure",null,null,null,null,null,null,null,"2014-02-14",null,null,null,null,null,null,null,null,null,null,null,null,"N","Non-white",">64","NA",null,null,null,null],["CDISCPILOT01","01-708-1067","1067",null,null,null,null,null,"2013-03-07",null,null,"708",88.0,"YEARS","M","WHITE","NOT HISPANIC OR LATINO","Scrnfail","Screen Failure","Scrnfail","Screen Failure","USA","2013-02-07",null,"Screen Failure","Screen Failure",null,null,null,null,null,null,null,"2013-02-07",null,null,null,null,null,null,null,null,null,null,null,null,"N","White",">64","NA",null,null,null,null],["CDISCPILOT01","01-708-1084","1084","2013-05-09","2013-11-11","2013-05-09","2013-11-11",null,"2013-11-11T10:00",null,null,"708",73.0,"YEARS","F","WHITE","NOT HISPANIC OR LATINO","Xan_Lo","Xanomeline Low Dose","Xan_Lo","Xanomeline Low Dose","USA","2013-05-01",-8.0,"Xanomeline Low Dose","Xanomeline Low Dose","2013-05-09T00:00:00","H","2013-11-11T23:59:59","H","2013-05-09","2013-11-11",187.0,null,"2013-11-11","COMPLETED",null,"2013-05-09",null,null,null,null,null,null,null,"2013-11-11","Y","White",">64","NA",null,null,null,null],["CDISCPILOT01","01-708-1087","1087","2012-10-22","2013-04-28","2012-10-22","2013-04-28",null,"2013-04-28T12:40",null,null,"708",74.0,"YEARS","F","WHITE","NOT HISPANIC OR LATINO","Pbo","Placebo","Pbo","Placebo","USA","2012-10-06",-16.0,"Placebo","Placebo","2012-10-22T00:00:00","H","2013-04-28T23:59:59","H","2012-10-22","2013-04-28",189.0,null,"2013-04-28","COMPLETED",null,"2012-10-22",null,null,null,null,null,null,null,"2013-04-28","Y","White",">64","NA",null,null,null,null],["CDISCPILOT01","01-708-1104","1104",null,null,null,null,null,"2014-01-23",null,null,"708",78.0,"YEARS","F","ASIAN","NOT HISPANIC OR LATINO","Scrnfail","Screen Failure","Scrnfail","Screen Failure","USA","2014-01-23",null,"Screen Failure","Screen Failure",null,null,null,null,null,null,null,"2014-01-23",null,null,null,null,null,null,null,null,null,null,null,null,"N","Non-white",">64","NA",null,null,null,null],["CDISCPILOT01","01-708-1158","1158","2014-02-08","2014-03-22","2014-02-08","2014-03-21",null,"2014-03-22T11:15",null,null,"708",81.0,"YEARS","F","WHITE","NOT HISPANIC OR LATINO","Pbo","Placebo","Pbo","Placebo","USA","2014-02-01",-7.0,"Placebo","Placebo","2014-02-08T00:00:00","H","2014-03-21T23:59:59","H","2014-02-08","2014-03-21",42.0,null,"2014-03-22","DISCONTINUED",null,"2014-02-08",null,null,null,null,null,null,null,"2014-03-22","Y","White",">64","NA",null,null,null,null],["CDISCPILOT01","01-708-1171","1171","2012-12-06","2013-06-04","2012-12-06","2013-06-04",null,"2013-06-04",null,null,"708",77.0,"YEARS","F","WHITE","NOT HISPANIC OR LATINO","Pbo","Placebo","Pbo","Placebo","USA","2012-11-25",-11.0,"Placebo","Placebo","2012-12-06T00:00:00","H","2013-06-04T23:59:59","H","2012-12-06","2013-06-04",181.0,null,"2013-06-04","COMPLETED",null,"2012-12-06",null,null,null,null,null,null,null,"2013-06-04","Y","White",">64","NA",null,null,null,null],["CDISCPILOT01","01-708-1178","1178","2013-12-29","2014-04-06","2013-12-29","2014-04-06",null,"2014-04-06T08:50",null,null,"708",77.0,"YEARS","F","BLACK OR AFRICAN AMERICAN","NOT HISPANIC OR LATINO","Xan_Hi","Xanomeline High Dose","Xan_Hi","Xanomeline High Dose","USA","2013-12-13",-16.0,"Xanomeline High Dose","Xanomeline High Dose","2013-12-29T00:00:00","H","2014-04-06T23:59:59","H","2013-12-29","2014-04-06",99.0,null,"2014-04-06","DISCONTINUED",null,"2013-12-29",null,null,null,null,null,null,null,"2014-04-06","Y","Non-white",">64","NA",null,null,null,null],["CDISCPILOT01","01-708-1184","1184",null,null,null,null,null,"2013-02-03",null,null,"708",70.0,"YEARS","F","WHITE","NOT HISPANIC OR LATINO","Scrnfail","Screen Failure","Scrnfail","Screen Failure","USA","2013-01-14",null,"Screen Failure","Screen Failure",null,null,null,null,null,null,null,"2013-01-14",null,null,null,null,null,null,null,null,null,null,null,null,"N","White",">64","NA",null,null,null,null],["CDISCPILOT01","01-708-1213","1213","2013-02-09","2013-02-26","2013-02-09","2013-02-22",null,"2013-02-26",null,null,"708",76.0,"YEARS","F","WHITE","NOT HISPANIC OR LATINO","Xan_Hi","Xanomeline High Dose","Xan_Lo","Xanomeline Low Dose","USA","2013-02-01",-8.0,"Xanomeline High Dose","Xanomeline Low Dose","2013-02-09T00:00:00","H","2013-02-22T23:59:59","H","2013-02-09","2013-02-22",14.0,null,"2013-02-26","DISCONTINUED",null,"2013-02-09",null,null,null,null,null,null,null,"2013-02-22","Y","White",">64","NA",null,null,null,null],["CDISCPILOT01","01-708-1216","1216","2012-10-24","2012-12-06","2012-10-24","2012-11-29",null,"2013-01-09",null,null,"708",78.0,"YEARS","M","WHITE","NOT HISPANIC OR LATINO","Xan_Hi","Xanomeline High Dose","Xan_Hi","Xanomeline High Dose","USA","2012-10-14",-10.0,"Xanomeline High Dose","Xanomeline High Dose","2012-10-24T00:00:00","H","2012-11-29T23:59:59","H","2012-10-24","2012-11-29",37.0,null,"2012-12-06","DISCONTINUED",null,"2012-10-24",null,null,null,null,null,null,null,"2012-12-13","Y","White",">64","NA",null,null,null,null],["CDISCPILOT01","01-708-1236","1236","2013-09-21","2013-09-26","2013-09-21","2013-09-21",null,"2013-09-26",null,null,"708",86.0,"YEARS","F","WHITE","NOT HISPANIC OR LATINO","Xan_Hi","Xanomeline High Dose","Xan_Lo","Xanomeline Low Dose","USA","2013-09-08",-13.0,"Xanomeline High Dose","Xanomeline Low Dose","2013-09-21T00:00:00","H","2013-09-21T23:59:59","H","2013-09-21","2013-09-21",1.0,null,"2013-09-26","DISCONTINUED",null,"2013-09-21",null,null,null,null,null,null,null,"2013-09-21","Y","White",">64","NA",null,null,null,null],["CDISCPILOT01","01-708-1242","1242",null,null,null,null,null,"2012-08-13",null,null,"708",80.0,"YEARS","M","WHITE","NOT HISPANIC OR LATINO","Scrnfail","Screen Failure","Scrnfail","Screen Failure","USA","2012-08-13",null,"Screen Failure","Screen Failure",null,null,null,null,null,null,null,"2012-08-13",null,null,null,null,null,null,null,null,null,null,null,null,"N","White",">64","NA",null,null,null,null],["CDISCPILOT01","01-708-1253","1253","2013-05-07","2013-11-05","2013-05-07","2013-11-05",null,"2013-11-05",null,null,"708",61.0,"YEARS","M","WHITE","NOT HISPANIC OR LATINO","Pbo","Placebo","Pbo","Placebo","USA","2013-04-26",-11.0,"Placebo","Placebo","2013-05-07T00:00:00","H","2013-11-05T23:59:59","H","2013-05-07","2013-11-05",183.0,null,"2013-11-05","COMPLETED",null,"2013-05-07",null,null,null,null,null,null,null,"2013-11-05","Y","White","18-64","NA",null,null,null,null],["CDISCPILOT01","01-708-1272","1272","2013-02-06","2013-04-04","2013-02-06","2013-03-22",null,"2013-04-04T11:05",null,null,"708",82.0,"YEARS","M","WHITE","NOT HISPANIC OR LATINO","Xan_Lo","Xanomeline Low Dose","Xan_Lo","Xanomeline Low Dose","USA","2013-01-22",-15.0,"Xanomeline Low Dose","Xanomeline Low Dose","2013-02-06T00:00:00","H","2013-03-22T23:59:59","H","2013-02-06","2013-03-22",45.0,null,"2013-04-04","DISCONTINUED",null,"2013-02-06",null,null,null,null,null,null,null,"2013-04-04","Y","White",">64","NA",null,null,null,null],["CDISCPILOT01","01-708-1286","1286","2013-09-10","2014-03-08","2013-09-10","2014-03-08",null,"2014-03-08T09:50",null,null,"708",80.0,"YEARS","F","BLACK OR AFRICAN AMERICAN","NOT HISPANIC OR LATINO","Pbo","Placebo","Pbo","Placebo","USA","2013-08-25",-16.0,"Placebo","Placebo","2013-09-10T00:00:00","H","2014-03-08T23:59:59","H","2013-09-10","2014-03-08",180.0,null,"2014-03-08","COMPLETED",null,"2013-09-10",null,null,null,null,null,null,null,"2014-03-08","Y","Non-white",">64","NA",null,null,null,null],["CDISCPILOT01","01-708-1296","1296","2013-06-14","2013-12-12","2013-06-14","2013-12-12",null,"2013-12-12T09:30",null,null,"708",57.0,"YEARS","M","BLACK OR AFRICAN AMERICAN","NOT HISPANIC OR LATINO","Pbo","Placebo","Pbo","Placebo","USA","2013-06-07",-7.0,"Placebo","Placebo","2013-06-14T00:00:00","H","2013-12-12T23:59:59","H","2013-06-14","2013-12-12",182.0,null,"2013-12-12","COMPLETED",null,"2013-06-14",null,null,null,null,null,null,null,"2013-12-12","Y","Non-white","18-64","NA",null,null,null,null],["CDISCPILOT01","01-708-1297","1297","2013-01-25","2013-05-08","2013-01-25","2013-05-03",null,"2013-06-07",null,null,"708",61.0,"YEARS","M","WHITE","NOT HISPANIC OR LATINO","Xan_Lo","Xanomeline Low Dose","Xan_Lo","Xanomeline Low Dose","USA","2013-01-15",-10.0,"Xanomeline Low Dose","Xanomeline Low Dose","2013-01-25T00:00:00","H","2013-05-03T23:59:59","H","2013-01-25","2013-05-03",99.0,null,"2013-05-08","DISCONTINUED",null,"2013-01-25",null,null,null,null,null,null,null,"2013-05-08","Y","White","18-64","NA",null,null,null,null],["CDISCPILOT01","01-708-1316","1316","2013-08-23","2014-03-01","2013-08-23","2014-03-01",null,"2014-03-01T10:25",null,null,"708",74.0,"YEARS","F","WHITE","NOT HISPANIC OR LATINO","Pbo","Placebo","Pbo","Placebo","USA","2013-08-15",-8.0,"Placebo","Placebo","2013-08-23T00:00:00","H","2014-03-01T23:59:59","H","2013-08-23","2014-03-01",191.0,null,"2014-03-01","COMPLETED",null,"2013-08-23",null,null,null,null,null,null,null,"2014-03-01","Y","White",">64","NA",null,null,null,null],["CDISCPILOT01","01-708-1336","1336","2012-12-07","2013-06-05","2012-12-07","2013-06-05",null,"2013-07-05",null,null,"708",73.0,"YEARS","M","WHITE","NOT HISPANIC OR LATINO","Xan_Hi","Xanomeline High Dose","Xan_Hi","Xanomeline High Dose","USA","2012-11-21",-16.0,"Xanomeline High Dose","Xanomeline High Dose","2012-12-07T00:00:00","H","2013-06-05T23:59:59","H","2012-12-07","2013-06-05",181.0,null,"2013-06-05","COMPLETED",null,"2012-12-07",null,null,null,null,null,null,null,"2013-06-05","Y","White",">64","NA",null,null,null,null],["CDISCPILOT01","01-708-1342","1342","2012-12-29","2013-06-28","2012-12-29","2013-06-28",null,"2013-06-28T09:40",null,null,"708",59.0,"YEARS","F","WHITE","NOT HISPANIC OR LATINO","Pbo","Placebo","Pbo","Placebo","USA","2012-12-21",-8.0,"Placebo","Placebo","2012-12-29T00:00:00","H","2013-06-28T23:59:59","H","2012-12-29","2013-06-28",182.0,null,"2013-06-28","COMPLETED",null,"2012-12-29",null,null,null,null,null,null,null,"2013-06-28","Y","White","18-64","NA",null,null,null,null],["CDISCPILOT01","01-708-1347","1347","2013-04-20","2013-06-18","2013-04-20","2013-06-18",null,"2013-08-02",null,null,"708",61.0,"YEARS","F","WHITE","NOT HISPANIC OR LATINO","Xan_Hi","Xanomeline High Dose","Xan_Hi","Xanomeline High Dose","USA","2013-04-11",-9.0,"Xanomeline High Dose","Xanomeline High Dose","2013-04-20T00:00:00","H","2013-06-18T23:59:59","H","2013-04-20","2013-06-18",60.0,null,"2013-06-18","DISCONTINUED",null,"2013-04-20",null,null,null,null,null,null,null,"2013-06-25","Y","White","18-64","NA",null,null,null,null],["CDISCPILOT01","01-708-1348","1348","2013-08-05","2014-02-13","2013-08-05","2014-02-13",null,"2014-02-13T10:25",null,null,"708",79.0,"YEARS","F","WHITE","NOT HISPANIC OR LATINO","Xan_Lo","Xanomeline Low Dose","Xan_Lo","Xanomeline Low Dose","USA","2013-07-28",-8.0,"Xanomeline Low Dose","Xanomeline Low Dose","2013-08-05T00:00:00","H","2014-02-13T23:59:59","H","2013-08-05","2014-02-13",193.0,null,"2014-02-13","COMPLETED",null,"2013-08-05",null,null,null,null,null,null,null,"2014-02-13","Y","White",">64","NA",null,null,null,null],["CDISCPILOT01","01-708-1352","1352",null,null,null,null,null,"2013-09-29",null,null,"708",87.0,"YEARS","F","WHITE","NOT HISPANIC OR LATINO","Scrnfail","Screen Failure","Scrnfail","Screen Failure","USA","2013-09-16",null,"Screen Failure","Screen Failure",null,null,null,null,null,null,null,"2013-09-16",null,null,null,null,null,null,null,null,null,null,null,null,"N","White",">64","NA",null,null,null,null],["CDISCPILOT01","01-708-1353","1353","2013-07-04","2013-09-10","2013-07-04","2013-08-28",null,"2013-09-10T13:15",null,null,"708",87.0,"YEARS","F","BLACK OR AFRICAN AMERICAN","NOT HISPANIC OR LATINO","Xan_Lo","Xanomeline Low Dose","Xan_Lo","Xanomeline Low Dose","USA","2013-06-17",-17.0,"Xanomeline Low Dose","Xanomeline Low Dose","2013-07-04T00:00:00","H","2013-08-28T23:59:59","H","2013-07-04","2013-08-28",56.0,null,"2013-09-10","DISCONTINUED",null,"2013-07-04",null,null,null,null,null,null,null,"2013-09-10","Y","Non-white",">64","NA",null,null,null,null],["CDISCPILOT01","01-708-1372","1372","2013-04-12","2013-05-10","2013-04-12","2013-04-19",null,"2013-05-10",null,null,"708",84.0,"YEARS","M","WHITE","NOT HISPANIC OR LATINO","Xan_Hi","Xanomeline High Dose","Xan_Lo","Xanomeline Low Dose","USA","2013-04-03",-9.0,"Xanomeline High Dose","Xanomeline Low Dose","2013-04-12T00:00:00","H","2013-04-19T23:59:59","H","2013-04-12","2013-04-19",8.0,null,"2013-05-10","DISCONTINUED",null,"2013-04-12",null,null,null,null,null,null,null,"2013-04-19","Y","White",">64","NA",null,null,null,null],["CDISCPILOT01","01-708-1378","1378","2013-09-03","2014-01-28","2013-09-03","2014-01-28",null,"2014-01-28T13:00",null,null,"708",67.0,"YEARS","M","BLACK OR AFRICAN AMERICAN","NOT HISPANIC OR LATINO","Pbo","Placebo","Pbo","Placebo","USA","2013-08-24",-10.0,"Placebo","Placebo","2013-09-03T00:00:00","H","2014-01-28T23:59:59","H","2013-09-03","2014-01-28",148.0,null,"2014-01-28","DISCONTINUED",null,"2013-09-03",null,null,null,null,null,null,null,"2014-01-28","Y","Non-white",">64","NA",null,null,null,null],["CDISCPILOT01","01-708-1406","1406","2013-12-26","2014-07-02","2013-12-26","2014-07-02",null,"2014-07-02T13:45",null,null,"708",71.0,"YEARS","F","WHITE","NOT HISPANIC OR LATINO","Xan_Hi","Xanomeline High Dose","Xan_Hi","Xanomeline High Dose","USA","2013-12-06",-20.0,"Xanomeline High Dose","Xanomeline High Dose","2013-12-26T00:00:00","H","2014-07-02T23:59:59","H","2013-12-26","2014-07-02",189.0,null,"2014-07-02","COMPLETED",null,"2013-12-26",null,null,null,null,null,null,null,"2014-07-02","Y","White",">64","NA",null,null,null,null],["CDISCPILOT01","01-708-1428","1428","2013-11-09","2014-01-31","2013-11-09","2013-12-14",null,"2014-01-31T11:10",null,null,"708",84.0,"YEARS","F","WHITE","NOT HISPANIC OR LATINO","Xan_Lo","Xanomeline Low Dose","Xan_Lo","Xanomeline Low Dose","USA","2013-11-02",-7.0,"Xanomeline Low Dose","Xanomeline Low Dose","2013-11-09T00:00:00","H","2013-12-14T23:59:59","H","2013-11-09","2013-12-14",36.0,null,"2014-01-31","DISCONTINUED",null,"2013-11-09",null,null,null,null,null,null,null,"2014-01-31","Y","White",">64","NA",null,null,null,null],["CDISCPILOT01","01-709-1001","1001","2013-10-08","2014-04-08","2013-10-08","2014-04-08",null,"2014-04-08",null,null,"709",76.0,"YEARS","F","WHITE","NOT HISPANIC OR LATINO","Pbo","Placebo","Pbo","Placebo","USA","2013-09-20",-18.0,"Placebo","Placebo","2013-10-08T00:00:00","H","2014-04-08T23:59:59","H","2013-10-08","2014-04-08",183.0,null,"2014-04-08","COMPLETED",null,"2013-10-08",null,null,null,null,null,null,null,"2014-04-08","Y","White",">64","NA",null,null,null,null],["CDISCPILOT01","01-709-1007","1007","2012-07-31","2012-09-01","2012-07-31","2012-08-28",null,"2012-09-07",null,null,"709",54.0,"YEARS","F","WHITE","NOT HISPANIC OR LATINO","Xan_Lo","Xanomeline Low Dose","Xan_Lo","Xanomeline Low Dose","USA","2012-07-21",-10.0,"Xanomeline Low Dose","Xanomeline Low Dose","2012-07-31T00:00:00","H","2012-08-28T23:59:59","H","2012-07-31","2012-08-28",29.0,null,"2012-09-01","DISCONTINUED",null,"2012-07-31",null,null,null,null,null,null,null,"2012-09-01","Y","White","18-64","NA",null,null,null,null],["CDISCPILOT01","01-709-1020","1020","2012-12-01","2013-06-01","2012-12-01","2013-06-01",null,"2013-06-01T10:40",null,null,"709",72.0,"YEARS","F","WHITE","NOT HISPANIC OR LATINO","Xan_Lo","Xanomeline Low Dose","Xan_Lo","Xanomeline Low Dose","USA","2012-11-22",-9.0,"Xanomeline Low Dose","Xanomeline Low Dose","2012-12-01T00:00:00","H","2013-06-01T23:59:59","H","2012-12-01","2013-06-01",183.0,null,"2013-06-01","COMPLETED",null,"2012-12-01",null,null,null,null,null,null,null,"2013-06-01","Y","White",">64","NA",null,null,null,null],["CDISCPILOT01","01-709-1029","1029","2012-12-25","2013-06-26","2012-12-25","2013-06-26",null,"2013-06-26T10:58",null,null,"709",82.0,"YEARS","M","WHITE","NOT HISPANIC OR LATINO","Xan_Hi","Xanomeline High Dose","Xan_Hi","Xanomeline High Dose","USA","2012-12-10",-15.0,"Xanomeline High Dose","Xanomeline High Dose","2012-12-25T00:00:00","H","2013-06-26T23:59:59","H","2012-12-25","2013-06-26",184.0,null,"2013-06-26","COMPLETED",null,"2012-12-25",null,null,null,null,null,null,null,"2013-06-26","Y","White",">64","NA",null,null,null,null],["CDISCPILOT01","01-709-1081","1081","2014-01-18","2014-05-10","2014-01-18","2014-04-27",null,"2014-05-10T11:15",null,null,"709",86.0,"YEARS","F","WHITE","NOT HISPANIC OR LATINO","Xan_Lo","Xanomeline Low Dose","Xan_Lo","Xanomeline Low Dose","USA","2014-01-09",-9.0,"Xanomeline Low Dose","Xanomeline Low Dose","2014-01-18T00:00:00","H","2014-04-27T23:59:59","H","2014-01-18","2014-04-27",100.0,null,"2014-05-10","DISCONTINUED",null,"2014-01-18",null,null,null,null,null,null,null,"2014-05-10","Y","White",">64","NA",null,null,null,null],["CDISCPILOT01","01-709-1088","1088","2014-04-12","2014-10-09","2014-04-12","2014-10-09",null,"2014-10-09T13:25",null,null,"709",69.0,"YEARS","M","WHITE","NOT HISPANIC OR LATINO","Pbo","Placebo","Pbo","Placebo","USA","2014-03-30",-13.0,"Placebo","Placebo","2014-04-12T00:00:00","H","2014-10-09T23:59:59","H","2014-04-12","2014-10-09",181.0,null,"2014-10-09","COMPLETED",null,"2014-04-12",null,null,null,null,null,null,null,"2014-10-09","Y","White",">64","NA",null,null,null,null],["CDISCPILOT01","01-709-1099","1099","2013-10-25","2014-04-25","2013-10-25","2014-04-25",null,"2014-04-25T09:10",null,null,"709",79.0,"YEARS","F","WHITE","NOT HISPANIC OR LATINO","Xan_Hi","Xanomeline High Dose","Xan_Hi","Xanomeline High Dose","USA","2013-10-14",-11.0,"Xanomeline High Dose","Xanomeline High Dose","2013-10-25T00:00:00","H","2014-04-25T23:59:59","H","2013-10-25","2014-04-25",183.0,null,"2014-04-25","COMPLETED",null,"2013-10-25",null,null,null,null,null,null,null,"2014-04-25","Y","White",">64","NA",null,null,null,null],["CDISCPILOT01","01-709-1102","1102","2013-01-15","2013-03-31","2013-01-15","2013-03-27",null,"2013-05-12",null,null,"709",71.0,"YEARS","F","WHITE","NOT HISPANIC OR LATINO","Xan_Lo","Xanomeline Low Dose","Xan_Lo","Xanomeline Low Dose","USA","2013-01-07",-8.0,"Xanomeline Low Dose","Xanomeline Low Dose","2013-01-15T00:00:00","H","2013-03-27T23:59:59","H","2013-01-15","2013-03-27",72.0,null,"2013-03-31","DISCONTINUED",null,"2013-01-15",null,null,null,null,null,null,null,"2013-03-31","Y","White",">64","NA",null,null,null,null],["CDISCPILOT01","01-709-1168","1168","2013-08-02","2013-09-27","2013-08-02","2013-09-26",null,"2013-11-01",null,null,"709",72.0,"YEARS","F","WHITE","NOT HISPANIC OR LATINO","Xan_Hi","Xanomeline High Dose","Xan_Hi","Xanomeline High Dose","USA","2013-07-25",-8.0,"Xanomeline High Dose","Xanomeline High Dose","2013-08-02T00:00:00","H","2013-09-26T23:59:59","H","2013-08-02","2013-09-26",56.0,null,"2013-09-27","DISCONTINUED",null,"2013-08-02",null,null,null,null,null,null,null,"2013-10-11","Y","White",">64","NA",null,null,null,null],["CDISCPILOT01","01-709-1217","1217","2013-03-04","2013-06-25","2013-03-04","2013-06-11",null,"2013-06-25T10:35",null,null,"709",77.0,"YEARS","M","WHITE","NOT HISPANIC OR LATINO","Xan_Lo","Xanomeline Low Dose","Xan_Lo","Xanomeline Low Dose","USA","2013-02-16",-16.0,"Xanomeline Low Dose","Xanomeline Low Dose","2013-03-04T00:00:00","H","2013-06-11T23:59:59","H","2013-03-04","2013-06-11",100.0,null,"2013-06-25","DISCONTINUED",null,"2013-03-04",null,null,null,null,null,null,null,"2013-06-25","Y","White",">64","NA",null,null,null,null],["CDISCPILOT01","01-709-1224","1224",null,null,null,null,null,"2013-11-24",null,null,"709",84.0,"YEARS","M","WHITE","NOT HISPANIC OR LATINO","Scrnfail","Screen Failure","Scrnfail","Screen Failure","USA","2013-11-18",null,"Screen Failure","Screen Failure",null,null,null,null,null,null,null,"2013-11-18",null,null,null,null,null,null,null,null,null,null,null,null,"N","White",">64","NA",null,null,null,null],["CDISCPILOT01","01-709-1237","1237",null,null,null,null,null,"2014-03-04",null,null,"709",88.0,"YEARS","F","WHITE","HISPANIC OR LATINO","Scrnfail","Screen Failure","Scrnfail","Screen Failure","USA","2014-01-17",null,"Screen Failure","Screen Failure",null,null,null,null,null,null,null,"2014-01-17",null,null,null,null,null,null,null,null,null,null,null,null,"N","White",">64","NA",null,null,null,null],["CDISCPILOT01","01-709-1238","1238","2013-05-15","2013-08-07","2013-05-15","2013-08-06",null,"2013-08-13",null,null,"709",69.0,"YEARS","M","WHITE","NOT HISPANIC OR LATINO","Xan_Hi","Xanomeline High Dose","Xan_Hi","Xanomeline High Dose","USA","2013-05-02",-13.0,"Xanomeline High Dose","Xanomeline High Dose","2013-05-15T00:00:00","H","2013-08-06T23:59:59","H","2013-05-15","2013-08-06",84.0,null,"2013-08-07","DISCONTINUED",null,"2013-05-15",null,null,null,null,null,null,null,"2013-08-07","Y","White",">64","NA",null,null,null,null],["CDISCPILOT01","01-709-1259","1259","2013-01-26","2013-06-13","2013-01-26","2013-06-13",null,"2013-06-13T12:23",null,null,"709",82.0,"YEARS","M","WHITE","NOT HISPANIC OR LATINO","Pbo","Placebo","Pbo","Placebo","USA","2013-01-13",-13.0,"Placebo","Placebo","2013-01-26T00:00:00","H","2013-06-13T23:59:59","H","2013-01-26","2013-06-13",139.0,null,"2013-06-13","DISCONTINUED",null,"2013-01-26",null,null,null,null,null,null,null,"2013-06-13","Y","White",">64","NA",null,null,null,null],["CDISCPILOT01","01-709-1285","1285","2013-03-24","2013-05-31","2013-03-24","2013-05-23",null,"2013-05-31T13:15",null,null,"709",87.0,"YEARS","M","WHITE","NOT HISPANIC OR LATINO","Xan_Lo","Xanomeline Low Dose","Xan_Lo","Xanomeline Low Dose","USA","2013-03-17",-7.0,"Xanomeline Low Dose","Xanomeline Low Dose","2013-03-24T00:00:00","H","2013-05-23T23:59:59","H","2013-03-24","2013-05-23",61.0,null,"2013-05-31","DISCONTINUED",null,"2013-03-24",null,null,null,null,null,null,null,"2013-05-31","Y","White",">64","NA",null,null,null,null],["CDISCPILOT01","01-709-1301","1301","2013-07-19","2014-01-17","2013-07-19","2014-01-17",null,"2014-01-17T10:07",null,null,"709",62.0,"YEARS","F","WHITE","NOT HISPANIC OR LATINO","Pbo","Placebo","Pbo","Placebo","USA","2013-07-14",-5.0,"Placebo","Placebo","2013-07-19T00:00:00","H","2014-01-17T23:59:59","H","2013-07-19","2014-01-17",183.0,null,"2014-01-17","COMPLETED",null,"2013-07-19",null,null,null,null,null,null,null,"2014-01-17","Y","White","18-64","NA",null,null,null,null],["CDISCPILOT01","01-709-1306","1306","2014-02-03","2014-06-25","2014-02-03","2014-06-16",null,"2014-06-25T10:45",null,null,"709",60.0,"YEARS","F","WHITE","NOT HISPANIC OR LATINO","Pbo","Placebo","Pbo","Placebo","USA","2014-01-19",-15.0,"Placebo","Placebo","2014-02-03T00:00:00","H","2014-06-16T23:59:59","H","2014-02-03","2014-06-16",134.0,null,"2014-06-25","DISCONTINUED",null,"2014-02-03",null,null,null,null,null,null,null,"2014-06-25","Y","White","18-64","NA",null,null,null,null],["CDISCPILOT01","01-709-1309","1309","2013-06-19","2013-12-19","2013-06-19","2013-12-19",null,"2013-12-19T10:35",null,null,"709",65.0,"YEARS","M","WHITE","NOT HISPANIC OR LATINO","Xan_Hi","Xanomeline High Dose","Xan_Hi","Xanomeline High Dose","USA","2013-06-09",-10.0,"Xanomeline High Dose","Xanomeline High Dose","2013-06-19T00:00:00","H","2013-12-19T23:59:59","H","2013-06-19","2013-12-19",184.0,null,"2013-12-19","COMPLETED",null,"2013-06-19",null,null,null,null,null,null,null,"2013-12-19","Y","White",">64","NA",null,null,null,null],["CDISCPILOT01","01-709-1312","1312","2014-04-20","2014-10-19","2014-04-20","2014-10-19",null,"2014-10-19T10:00",null,null,"709",68.0,"YEARS","F","WHITE","NOT HISPANIC OR LATINO","Pbo","Placebo","Pbo","Placebo","USA","2014-04-13",-7.0,"Placebo","Placebo","2014-04-20T00:00:00","H","2014-10-19T23:59:59","H","2014-04-20","2014-10-19",183.0,null,"2014-10-19","COMPLETED",null,"2014-04-20",null,null,null,null,null,null,null,"2014-10-19","Y","White",">64","NA",null,null,null,null],["CDISCPILOT01","01-709-1326","1326","2013-04-05","2013-10-02","2013-04-05","2013-10-02",null,"2013-10-02T09:40",null,null,"709",75.0,"YEARS","F","WHITE","NOT HISPANIC OR LATINO","Xan_Lo","Xanomeline Low Dose","Xan_Lo","Xanomeline Low Dose","USA","2013-03-21",-15.0,"Xanomeline Low Dose","Xanomeline Low Dose","2013-04-05T00:00:00","H","2013-10-02T23:59:59","H","2013-04-05","2013-10-02",181.0,null,"2013-10-02","COMPLETED",null,"2013-04-05",null,null,null,null,null,null,null,"2013-10-02","Y","White",">64","NA",null,null,null,null],["CDISCPILOT01","01-709-1329","1329","2013-08-15","2013-08-29","2013-08-15","2013-08-25",null,"2013-08-29T10:35",null,null,"709",70.0,"YEARS","M","WHITE","NOT HISPANIC OR LATINO","Xan_Hi","Xanomeline High Dose","Xan_Lo","Xanomeline Low Dose","USA","2013-08-01",-14.0,"Xanomeline High Dose","Xanomeline Low Dose","2013-08-15T00:00:00","H","2013-08-25T23:59:59","H","2013-08-15","2013-08-25",11.0,null,"2013-08-29","DISCONTINUED",null,"2013-08-15",null,null,null,null,null,null,null,"2013-08-29","Y","White",">64","NA",null,null,null,null],["CDISCPILOT01","01-709-1339","1339","2012-12-23","2013-06-24","2012-12-23","2013-06-24",null,"2013-06-24T10:10",null,null,"709",81.0,"YEARS","M","WHITE","NOT HISPANIC OR LATINO","Pbo","Placebo","Pbo","Placebo","USA","2012-12-15",-8.0,"Placebo","Placebo","2012-12-23T00:00:00","H","2013-06-24T23:59:59","H","2012-12-23","2013-06-24",184.0,null,"2013-06-24","COMPLETED",null,"2012-12-23",null,null,null,null,null,null,null,"2013-06-24","Y","White",">64","NA",null,null,null,null],["CDISCPILOT01","01-709-1424","1424","2013-03-03","2013-03-08","2013-03-03","2013-03-07",null,"2013-03-17",null,null,"709",77.0,"YEARS","M","WHITE","NOT HISPANIC OR LATINO","Xan_Hi","Xanomeline High Dose","Xan_Lo","Xanomeline Low Dose","USA","2013-02-15",-16.0,"Xanomeline High Dose","Xanomeline Low Dose","2013-03-03T00:00:00","H","2013-03-07T23:59:59","H","2013-03-03","2013-03-07",5.0,null,"2013-03-08","DISCONTINUED",null,"2013-03-03",null,null,null,null,null,null,null,"2013-03-17","Y","White",">64","NA",null,null,null,null],["CDISCPILOT01","01-710-1002","1002","2014-01-14","2014-01-18","2014-01-14","2014-01-18",null,"2014-01-20",null,null,"710",88.0,"YEARS","M","WHITE","NOT HISPANIC OR LATINO","Xan_Lo","Xanomeline Low Dose","Xan_Lo","Xanomeline Low Dose","USA","2013-12-30",-15.0,"Xanomeline Low Dose","Xanomeline Low Dose","2014-01-14T00:00:00","H","2014-01-18T23:59:59","H","2014-01-14","2014-01-18",5.0,null,"2014-01-18","DISCONTINUED",null,"2014-01-14",null,null,null,null,null,null,null,"2014-01-20","Y","White",">64","NA",null,null,null,null],["CDISCPILOT01","01-710-1006","1006","2013-02-10","2013-08-10","2013-02-10","2013-08-09",null,"2013-08-10T10:10",null,null,"710",77.0,"YEARS","M","WHITE","NOT HISPANIC OR LATINO","Xan_Hi","Xanomeline High Dose","Xan_Hi","Xanomeline High Dose","USA","2013-01-27",-14.0,"Xanomeline High Dose","Xanomeline High Dose","2013-02-10T00:00:00","H","2013-08-09T23:59:59","H","2013-02-10","2013-08-09",181.0,null,"2013-08-10","COMPLETED",null,"2013-02-10",null,null,null,null,null,null,null,"2013-08-10","Y","White",">64","NA",null,null,null,null],["CDISCPILOT01","01-710-1021","1021","2013-09-27","2013-11-12","2013-09-27","2013-10-29",null,"2013-11-22",null,null,"710",79.0,"YEARS","M","BLACK OR AFRICAN AMERICAN","NOT HISPANIC OR LATINO","Xan_Hi","Xanomeline High Dose","Xan_Hi","Xanomeline High Dose","USA","2013-09-19",-8.0,"Xanomeline High Dose","Xanomeline High Dose","2013-09-27T00:00:00","H","2013-10-29T23:59:59","H","2013-09-27","2013-10-29",33.0,null,"2013-11-12","DISCONTINUED",null,"2013-09-27",null,null,null,null,null,null,null,"2013-11-12","Y","Non-white",">64","NA",null,null,null,null],["CDISCPILOT01","01-710-1027","1027","2014-02-28","2014-08-29","2014-02-28","2014-08-29",null,"2014-08-29T11:05",null,null,"710",83.0,"YEARS","M","WHITE","NOT HISPANIC OR LATINO","Pbo","Placebo","Pbo","Placebo","USA","2014-02-03",-25.0,"Placebo","Placebo","2014-02-28T00:00:00","H","2014-08-29T23:59:59","H","2014-02-28","2014-08-29",183.0,null,"2014-08-29","COMPLETED",null,"2014-02-28",null,null,null,null,null,null,null,"2014-08-29","Y","White",">64","NA",null,null,null,null],["CDISCPILOT01","01-710-1045","1045","2013-06-03","2013-08-17","2013-06-03","2013-08-13",null,"2013-09-08",null,null,"710",83.0,"YEARS","F","WHITE","NOT HISPANIC OR LATINO","Xan_Lo","Xanomeline Low Dose","Xan_Lo","Xanomeline Low Dose","USA","2013-05-20",-14.0,"Xanomeline Low Dose","Xanomeline Low Dose","2013-06-03T00:00:00","H","2013-08-13T23:59:59","H","2013-06-03","2013-08-13",72.0,null,"2013-08-17","DISCONTINUED",null,"2013-06-03",null,null,null,null,null,null,null,"2013-08-17","Y","White",">64","NA",null,null,null,null],["CDISCPILOT01","01-710-1053","1053","2012-12-26","2013-02-15","2012-12-26","2013-02-10",null,"2013-02-26T13:25",null,null,"710",84.0,"YEARS","F","WHITE","NOT HISPANIC OR LATINO","Xan_Lo","Xanomeline Low Dose","Xan_Lo","Xanomeline Low Dose","USA","2012-12-15",-11.0,"Xanomeline Low Dose","Xanomeline Low Dose","2012-12-26T00:00:00","H","2013-02-10T23:59:59","H","2012-12-26","2013-02-10",47.0,null,"2013-02-15","DISCONTINUED",null,"2012-12-26",null,null,null,null,null,null,null,"2013-02-26","Y","White",">64","NA",null,null,null,null],["CDISCPILOT01","01-710-1060","1060","2013-01-01","2013-07-05","2013-01-01","2013-07-05",null,"2013-07-05T14:40",null,null,"710",82.0,"YEARS","M","WHITE","NOT HISPANIC OR LATINO","Pbo","Placebo","Pbo","Placebo","USA","2012-12-24",-8.0,"Placebo","Placebo","2013-01-01T00:00:00","H","2013-07-05T23:59:59","H","2013-01-01","2013-07-05",186.0,null,"2013-07-05","COMPLETED",null,"2013-01-01",null,null,null,null,null,null,null,"2013-07-05","Y","White",">64","NA",null,null,null,null],["CDISCPILOT01","01-710-1070","1070","2012-09-08","2013-02-23","2012-09-08","2013-01-22",null,"2013-07-04",null,null,"710",85.0,"YEARS","F","WHITE","NOT HISPANIC OR LATINO","Xan_Hi","Xanomeline High Dose","Xan_Hi","Xanomeline High Dose","USA","2012-08-28",-11.0,"Xanomeline High Dose","Xanomeline High Dose","2012-09-08T00:00:00","H","2013-01-22T23:59:59","H","2012-09-08","2013-01-22",137.0,null,"2013-02-23","DISCONTINUED",null,"2012-09-08",null,null,null,null,null,null,null,"2013-02-10","Y","White",">64","NA",null,null,null,null],["CDISCPILOT01","01-710-1077","1077","2013-11-17","2014-05-18","2013-11-17","2014-05-18",null,"2014-05-18T09:50",null,null,"710",76.0,"YEARS","F","WHITE","NOT HISPANIC OR LATINO","Pbo","Placebo","Pbo","Placebo","USA","2013-11-03",-14.0,"Placebo","Placebo","2013-11-17T00:00:00","H","2014-05-18T23:59:59","H","2013-11-17","2014-05-18",183.0,null,"2014-05-18","COMPLETED",null,"2013-11-17",null,null,null,null,null,null,null,"2014-05-18","Y","White",">64","NA",null,null,null,null],["CDISCPILOT01","01-710-1078","1078","2013-09-17","2014-03-23","2013-09-17","2014-03-23",null,"2014-03-23T16:00",null,null,"710",81.0,"YEARS","F","WHITE","NOT HISPANIC OR LATINO","Pbo","Placebo","Pbo","Placebo","USA","2013-09-06",-11.0,"Placebo","Placebo","2013-09-17T00:00:00","H","2014-03-23T23:59:59","H","2013-09-17","2014-03-23",188.0,null,"2014-03-23","COMPLETED",null,"2013-09-17",null,null,null,null,null,null,null,"2014-03-23","Y","White",">64","NA",null,null,null,null],["CDISCPILOT01","01-710-1083","1083","2013-07-22","2013-08-03","2013-07-22","2013-08-01",null,"2013-08-03","2013-08-02","Y","710",89.0,"YEARS","F","WHITE","NOT HISPANIC OR LATINO","Pbo","Placebo","Pbo","Placebo","USA","2013-07-09",-13.0,"Placebo","Placebo","2013-07-22T00:00:00","H","2013-08-01T23:59:59","H","2013-07-22","2013-08-01",11.0,null,"2013-08-02","DISCONTINUED",null,"2013-07-22","2013-08-02",null,12.0,1.0,"MYOCARDIAL INFARCTION","AE","ADVERSE EVENT","2013-08-02","Y","White",">64","NA","<= 30","Y",null,"Y"],["CDISCPILOT01","01-710-1129","1129",null,null,null,null,null,"2013-03-17",null,null,"710",69.0,"YEARS","F","BLACK OR AFRICAN AMERICAN","NOT HISPANIC OR LATINO","Scrnfail","Screen Failure","Scrnfail","Screen Failure","USA","2013-03-05",null,"Screen Failure","Screen Failure",null,null,null,null,null,null,null,"2013-03-05",null,null,null,null,null,null,null,null,null,null,null,null,"N","Non-white",">64","NA",null,null,null,null],["CDISCPILOT01","01-710-1137","1137","2013-10-11","2013-11-13","2013-10-11","2013-11-13",null,"2013-11-25",null,null,"710",79.0,"YEARS","F","BLACK OR AFRICAN AMERICAN","NOT HISPANIC OR LATINO","Xan_Hi","Xanomeline High Dose","Xan_Hi","Xanomeline High Dose","USA","2013-10-03",-8.0,"Xanomeline High Dose","Xanomeline High Dose","2013-10-11T00:00:00","H","2013-11-13T23:59:59","H","2013-10-11","2013-11-13",34.0,null,"2013-11-13","DISCONTINUED",null,"2013-10-11",null,null,null,null,null,null,null,"2013-11-13","Y","Non-white",">64","NA",null,null,null,null],["CDISCPILOT01","01-710-1142","1142","2012-10-02","2012-10-23","2012-10-02","2012-10-20",null,"2012-10-28",null,null,"710",76.0,"YEARS","F","WHITE","NOT HISPANIC OR LATINO","Xan_Hi","Xanomeline High Dose","Xan_Hi","Xanomeline High Dose","USA","2012-09-12",-20.0,"Xanomeline High Dose","Xanomeline High Dose","2012-10-02T00:00:00","H","2012-10-20T23:59:59","H","2012-10-02","2012-10-20",19.0,null,"2012-10-23","DISCONTINUED",null,"2012-10-02",null,null,null,null,null,null,null,"2012-10-23","Y","White",">64","NA",null,null,null,null],["CDISCPILOT01","01-710-1149","1149",null,null,null,null,null,"2013-12-01",null,null,"710",79.0,"YEARS","F","WHITE","NOT HISPANIC OR LATINO","Scrnfail","Screen Failure","Scrnfail","Screen Failure","USA","2013-11-16",null,"Screen Failure","Screen Failure",null,null,null,null,null,null,null,"2013-11-16",null,null,null,null,null,null,null,null,null,null,null,null,"N","White",">64","NA",null,null,null,null],["CDISCPILOT01","01-710-1154","1154","2014-03-29","2014-05-09","2014-03-29","2014-04-27",null,"2014-06-13",null,null,"710",84.0,"YEARS","M","WHITE","HISPANIC OR LATINO","Xan_Lo","Xanomeline Low Dose","Xan_Lo","Xanomeline Low Dose","USA","2014-03-08",-21.0,"Xanomeline Low Dose","Xanomeline Low Dose","2014-03-29T00:00:00","H","2014-04-27T23:59:59","H","2014-03-29","2014-04-27",30.0,null,"2014-05-09","DISCONTINUED",null,"2014-03-29",null,null,null,null,null,null,null,"2014-05-09","Y","White",">64","NA",null,null,null,null],["CDISCPILOT01","01-710-1166","1166","2012-11-30","2013-03-30","2012-11-30","2013-03-19",null,"2013-05-22",null,null,"710",81.0,"YEARS","F","WHITE","NOT HISPANIC OR LATINO","Xan_Lo","Xanomeline Low Dose","Xan_Lo","Xanomeline Low Dose","USA","2012-11-10",-20.0,"Xanomeline Low Dose","Xanomeline Low Dose","2012-11-30T00:00:00","H","2013-03-19T23:59:59","H","2012-11-30","2013-03-19",110.0,null,"2013-03-30","DISCONTINUED",null,"2012-11-30",null,null,null,null,null,null,null,"2013-03-30","Y","White",">64","NA",null,null,null,null],["CDISCPILOT01","01-710-1183","1183","2013-11-16","2014-05-17","2013-11-16","2014-05-17",null,"2014-05-17T11:55",null,null,"710",80.0,"YEARS","F","WHITE","NOT HISPANIC OR LATINO","Pbo","Placebo","Pbo","Placebo","USA","2013-10-24",-23.0,"Placebo","Placebo","2013-11-16T00:00:00","H","2014-05-17T23:59:59","H","2013-11-16","2014-05-17",183.0,null,"2014-05-17","COMPLETED",null,"2013-11-16",null,null,null,null,null,null,null,"2014-05-17","Y","White",">64","NA",null,null,null,null],["CDISCPILOT01","01-710-1187","1187","2012-11-10","2013-05-12","2012-11-10","2013-05-12",null,"2013-05-12T11:05",null,null,"710",78.0,"YEARS","F","WHITE","NOT HISPANIC OR LATINO","Xan_Hi","Xanomeline High Dose","Xan_Hi","Xanomeline High Dose","USA","2012-10-26",-15.0,"Xanomeline High Dose","Xanomeline High Dose","2012-11-10T00:00:00","H","2013-05-12T23:59:59","H","2012-11-10","2013-05-12",184.0,null,"2013-05-12","COMPLETED",null,"2012-11-10",null,null,null,null,null,null,null,"2013-05-12","Y","White",">64","NA",null,null,null,null],["CDISCPILOT01","01-710-1235","1235","2012-09-26","2013-03-27","2012-09-26","2013-03-27",null,"2013-03-27T09:35",null,null,"710",56.0,"YEARS","F","WHITE","HISPANIC OR LATINO","Xan_Lo","Xanomeline Low Dose","Xan_Lo","Xanomeline Low Dose","USA","2012-09-13",-13.0,"Xanomeline Low Dose","Xanomeline Low Dose","2012-09-26T00:00:00","H","2013-03-27T23:59:59","H","2012-09-26","2013-03-27",183.0,null,"2013-03-27","COMPLETED",null,"2012-09-26",null,null,null,null,null,null,null,"2013-03-27","Y","White","18-64","NA",null,null,null,null],["CDISCPILOT01","01-710-1249","1249","2013-12-28","2014-06-28","2013-12-28","2014-06-28",null,"2014-06-28T11:05",null,null,"710",79.0,"YEARS","M","WHITE","NOT HISPANIC OR LATINO","Xan_Hi","Xanomeline High Dose","Xan_Hi","Xanomeline High Dose","USA","2013-12-19",-9.0,"Xanomeline High Dose","Xanomeline High Dose","2013-12-28T00:00:00","H","2014-06-28T23:59:59","H","2013-12-28","2014-06-28",183.0,null,"2014-06-28","COMPLETED",null,"2013-12-28",null,null,null,null,null,null,null,"2014-06-28","Y","White",">64","NA",null,null,null,null],["CDISCPILOT01","01-710-1257","1257",null,null,null,null,null,"2013-12-11",null,null,"710",85.0,"YEARS","F","WHITE","NOT HISPANIC OR LATINO","Scrnfail","Screen Failure","Scrnfail","Screen Failure","USA","2013-11-29",null,"Screen Failure","Screen Failure",null,null,null,null,null,null,null,"2013-11-29",null,null,null,null,null,null,null,null,null,null,null,null,"N","White",">64","NA",null,null,null,null],["CDISCPILOT01","01-710-1264","1264","2013-06-13","2013-10-12","2013-06-13","2013-10-11",null,"2013-11-05",null,null,"710",78.0,"YEARS","M","WHITE","NOT HISPANIC OR LATINO","Pbo","Placebo","Pbo","Placebo","USA","2013-06-02",-11.0,"Placebo","Placebo","2013-06-13T00:00:00","H","2013-10-11T23:59:59","H","2013-06-13","2013-10-11",121.0,null,"2013-10-12","DISCONTINUED",null,"2013-06-13",null,null,null,null,null,null,null,"2013-10-12","Y","White",">64","NA",null,null,null,null],["CDISCPILOT01","01-710-1270","1270","2014-02-12","2014-03-01","2014-02-12","2014-03-01",null,"2014-03-26",null,null,"710",83.0,"YEARS","F","WHITE","NOT HISPANIC OR LATINO","Xan_Lo","Xanomeline Low Dose","Xan_Lo","Xanomeline Low Dose","USA","2014-02-01",-11.0,"Xanomeline Low Dose","Xanomeline Low Dose","2014-02-12T00:00:00","H","2014-03-01T23:59:59","H","2014-02-12","2014-03-01",18.0,null,"2014-03-01","DISCONTINUED",null,"2014-02-12",null,null,null,null,null,null,null,"2014-03-01","Y","White",">64","NA",null,null,null,null],["CDISCPILOT01","01-710-1271","1271","2012-09-27","2012-12-02","2012-09-27","2012-11-21",null,"2012-12-09",null,null,"710",86.0,"YEARS","F","WHITE","NOT HISPANIC OR LATINO","Pbo","Placebo","Pbo","Placebo","USA","2012-09-04",-23.0,"Placebo","Placebo","2012-09-27T00:00:00","H","2012-11-21T23:59:59","H","2012-09-27","2012-11-21",56.0,null,"2012-12-02","DISCONTINUED",null,"2012-09-27",null,null,null,null,null,null,null,"2012-11-26","Y","White",">64","NA",null,null,null,null],["CDISCPILOT01","01-710-1278","1278","2012-12-24","2013-03-03","2012-12-24","2013-02-26",null,"2013-03-10",null,null,"710",81.0,"YEARS","M","WHITE","NOT HISPANIC OR LATINO","Xan_Hi","Xanomeline High Dose","Xan_Hi","Xanomeline High Dose","USA","2012-12-13",-11.0,"Xanomeline High Dose","Xanomeline High Dose","2012-12-24T00:00:00","H","2013-02-26T23:59:59","H","2012-12-24","2013-02-26",65.0,null,"2013-03-03","DISCONTINUED",null,"2012-12-24",null,null,null,null,null,null,null,"2013-03-07","Y","White",">64","NA",null,null,null,null],["CDISCPILOT01","01-710-1300","1300","2012-12-15","2013-02-19","2012-12-15","2013-02-15",null,"2013-03-19",null,null,"710",78.0,"YEARS","F","WHITE","NOT HISPANIC OR LATINO","Xan_Lo","Xanomeline Low Dose","Xan_Lo","Xanomeline Low Dose","USA","2012-12-04",-11.0,"Xanomeline Low Dose","Xanomeline Low Dose","2012-12-15T00:00:00","H","2013-02-15T23:59:59","H","2012-12-15","2013-02-15",63.0,null,"2013-02-19","DISCONTINUED",null,"2012-12-15",null,null,null,null,null,null,null,"2013-02-19","Y","White",">64","NA",null,null,null,null],["CDISCPILOT01","01-710-1314","1314","2013-04-24","2013-05-25","2013-04-24","2013-05-23",null,"2013-05-25",null,null,"710",78.0,"YEARS","F","WHITE","NOT HISPANIC OR LATINO","Pbo","Placebo","Pbo","Placebo","USA","2013-04-21",-3.0,"Placebo","Placebo","2013-04-24T00:00:00","H","2013-05-23T23:59:59","H","2013-04-24","2013-05-23",30.0,null,"2013-05-25","DISCONTINUED",null,"2013-04-24",null,null,null,null,null,null,null,"2013-05-24","Y","White",">64","NA",null,null,null,null],["CDISCPILOT01","01-710-1315","1315","2013-02-27","2013-07-16","2013-02-27","2013-07-06",null,"2013-09-02",null,null,"710",83.0,"YEARS","F","WHITE","NOT HISPANIC OR LATINO","Pbo","Placebo","Pbo","Placebo","USA","2013-02-12",-15.0,"Placebo","Placebo","2013-02-27T00:00:00","H","2013-07-06T23:59:59","H","2013-02-27","2013-07-06",130.0,null,"2013-07-16","DISCONTINUED",null,"2013-02-27",null,null,null,null,null,null,null,"2013-07-16","Y","White",">64","NA",null,null,null,null],["CDISCPILOT01","01-710-1337","1337",null,null,null,null,null,"2014-01-26",null,null,"710",73.0,"YEARS","M","WHITE","NOT HISPANIC OR LATINO","Scrnfail","Screen Failure","Scrnfail","Screen Failure","USA","2013-12-30",null,"Screen Failure","Screen Failure",null,null,null,null,null,null,null,"2013-12-30",null,null,null,null,null,null,null,null,null,null,null,null,"N","White",">64","NA",null,null,null,null],["CDISCPILOT01","01-710-1354","1354","2012-11-11","2013-05-01","2012-11-11","2013-05-01",null,"2013-05-01T14:05",null,null,"710",73.0,"YEARS","M","WHITE","NOT HISPANIC OR LATINO","Xan_Hi","Xanomeline High Dose","Xan_Hi","Xanomeline High Dose","USA","2012-10-29",-13.0,"Xanomeline High Dose","Xanomeline High Dose","2012-11-11T00:00:00","H","2013-05-01T23:59:59","H","2012-11-11","2013-05-01",172.0,null,"2013-05-01","COMPLETED",null,"2012-11-11",null,null,null,null,null,null,null,"2013-05-01","Y","White",">64","NA",null,null,null,null],["CDISCPILOT01","01-710-1358","1358","2012-09-17","2013-03-12","2012-09-17","2013-02-09",null,"2013-03-12",null,null,"710",82.0,"YEARS","M","WHITE","NOT HISPANIC OR LATINO","Xan_Lo","Xanomeline Low Dose","Xan_Lo","Xanomeline Low Dose","USA","2012-09-02",-15.0,"Xanomeline Low Dose","Xanomeline Low Dose","2012-09-17T00:00:00","H","2013-02-09T23:59:59","H","2012-09-17","2013-02-09",146.0,null,"2013-03-12","DISCONTINUED",null,"2012-09-17",null,null,null,null,null,null,null,"2013-02-09","Y","White",">64","NA",null,null,null,null],["CDISCPILOT01","01-710-1368","1368","2013-10-23","2014-04-24","2013-10-23","2014-04-24",null,"2014-04-24T10:10",null,null,"710",88.0,"YEARS","F","WHITE","NOT HISPANIC OR LATINO","Pbo","Placebo","Pbo","Placebo","USA","2013-10-21",-2.0,"Placebo","Placebo","2013-10-23T00:00:00","H","2014-04-24T23:59:59","H","2013-10-23","2014-04-24",184.0,null,"2014-04-24","COMPLETED",null,"2013-10-23",null,null,null,null,null,null,null,"2014-04-24","Y","White",">64","NA",null,null,null,null],["CDISCPILOT01","01-710-1376","1376",null,null,null,null,null,"2014-05-02",null,null,"710",89.0,"YEARS","F","WHITE","NOT HISPANIC OR LATINO","Scrnfail","Screen Failure","Scrnfail","Screen Failure","USA","2014-04-21",null,"Screen Failure","Screen Failure",null,null,null,null,null,null,null,"2014-04-21",null,null,null,null,null,null,null,null,null,null,null,null,"N","White",">64","NA",null,null,null,null],["CDISCPILOT01","01-710-1380","1380",null,null,null,null,null,"2013-06-12",null,null,"710",80.0,"YEARS","F","WHITE","NOT HISPANIC OR LATINO","Scrnfail","Screen Failure","Scrnfail","Screen Failure","USA","2013-06-02",null,"Screen Failure","Screen Failure",null,null,null,null,null,null,null,"2013-06-02",null,null,null,null,null,null,null,null,null,null,null,null,"N","White",">64","NA",null,null,null,null],["CDISCPILOT01","01-710-1385","1385","2012-10-29","2013-02-18","2012-10-29","2013-02-18",null,"2013-02-24",null,null,"710",77.0,"YEARS","M","WHITE","NOT HISPANIC OR LATINO","Xan_Lo","Xanomeline Low Dose","Xan_Lo","Xanomeline Low Dose","USA","2012-10-21",-8.0,"Xanomeline Low Dose","Xanomeline Low Dose","2012-10-29T00:00:00","H","2013-02-18T23:59:59","H","2012-10-29","2013-02-18",113.0,null,"2013-02-18","DISCONTINUED",null,"2012-10-29",null,null,null,null,null,null,null,"2013-02-18","Y","White",">64","NA",null,null,null,null],["CDISCPILOT01","01-710-1408","1408","2013-01-05","2013-07-12","2013-01-05","2013-07-12",null,"2013-07-12T14:35",null,null,"710",80.0,"YEARS","M","WHITE","NOT HISPANIC OR LATINO","Xan_Hi","Xanomeline High Dose","Xan_Hi","Xanomeline High Dose","USA","2012-12-26",-10.0,"Xanomeline High Dose","Xanomeline High Dose","2013-01-05T00:00:00","H","2013-07-12T23:59:59","H","2013-01-05","2013-07-12",189.0,null,"2013-07-12","COMPLETED",null,"2013-01-05",null,null,null,null,null,null,null,"2013-07-12","Y","White",">64","NA",null,null,null,null],["CDISCPILOT01","01-710-1443","1443",null,null,null,null,null,"2013-12-14",null,null,"710",88.0,"YEARS","F","WHITE","NOT HISPANIC OR LATINO","Scrnfail","Screen Failure","Scrnfail","Screen Failure","USA","2013-12-13",null,"Screen Failure","Screen Failure",null,null,null,null,null,null,null,"2013-12-13",null,null,null,null,null,null,null,null,null,null,null,null,"N","White",">64","NA",null,null,null,null],["CDISCPILOT01","01-711-1012","1012","2013-04-03","2013-05-02","2013-04-03","2013-04-29",null,"2013-09-18",null,null,"711",67.0,"YEARS","F","WHITE","NOT HISPANIC OR LATINO","Xan_Hi","Xanomeline High Dose","Xan_Hi","Xanomeline High Dose","USA","2013-03-20",-14.0,"Xanomeline High Dose","Xanomeline High Dose","2013-04-03T00:00:00","H","2013-04-29T23:59:59","H","2013-04-03","2013-04-29",27.0,null,"2013-05-02","DISCONTINUED","2013-09-18","2013-04-03",null,null,null,null,null,null,null,"2013-05-02","Y","White",">64","NA",null,null,null,null],["CDISCPILOT01","01-711-1022","1022",null,null,null,null,null,"2014-03-17",null,null,"711",86.0,"YEARS","F","WHITE","NOT HISPANIC OR LATINO","Scrnfail","Screen Failure","Scrnfail","Screen Failure","USA","2014-03-17",null,"Screen Failure","Screen Failure",null,null,null,null,null,null,null,"2014-03-17",null,null,null,null,null,null,null,null,null,null,null,null,"N","White",">64","NA",null,null,null,null],["CDISCPILOT01","01-711-1036","1036","2012-07-29","2013-02-10","2012-07-29","2013-02-10",null,"2013-02-10T10:25",null,null,"711",70.0,"YEARS","M","BLACK OR AFRICAN AMERICAN","NOT HISPANIC OR LATINO","Pbo","Placebo","Pbo","Placebo","USA","2012-07-20",-9.0,"Placebo","Placebo","2012-07-29T00:00:00","H","2013-02-10T23:59:59","H","2012-07-29","2013-02-10",197.0,null,"2013-02-10","COMPLETED",null,"2012-07-29",null,null,null,null,null,null,null,"2013-02-10","Y","Non-white",">64","NA",null,null,null,null],["CDISCPILOT01","01-711-1143","1143","2013-04-03","2013-06-01","2013-04-03","2013-05-30",null,"2013-09-22",null,null,"711",76.0,"YEARS","F","WHITE","NOT HISPANIC OR LATINO","Xan_Lo","Xanomeline Low Dose","Xan_Lo","Xanomeline Low Dose","USA","2013-03-30",-4.0,"Xanomeline Low Dose","Xanomeline Low Dose","2013-04-03T00:00:00","H","2013-05-30T23:59:59","H","2013-04-03","2013-05-30",58.0,null,"2013-06-01","DISCONTINUED","2013-09-22","2013-04-03",null,null,null,null,null,null,null,"2013-06-01","Y","White",">64","NA",null,null,null,null],["CDISCPILOT01","01-711-1163","1163",null,null,null,null,null,"2012-11-08",null,null,"711",74.0,"YEARS","F","BLACK OR AFRICAN AMERICAN","NOT HISPANIC OR LATINO","Scrnfail","Screen Failure","Scrnfail","Screen Failure","USA","2012-11-08",null,"Screen Failure","Screen Failure",null,null,null,null,null,null,null,"2012-11-08",null,null,null,null,null,null,null,null,null,null,null,null,"N","Non-white",">64","NA",null,null,null,null],["CDISCPILOT01","01-711-1173","1173",null,null,null,null,null,"2012-10-04",null,null,"711",62.0,"YEARS","M","WHITE","NOT HISPANIC OR LATINO","Scrnfail","Screen Failure","Scrnfail","Screen Failure","USA","2012-10-04",null,"Screen Failure","Screen Failure",null,null,null,null,null,null,null,"2012-10-04",null,null,null,null,null,null,null,null,null,null,null,null,"N","White","18-64","NA",null,null,null,null],["CDISCPILOT01","01-711-1226","1226",null,null,null,null,null,"2013-10-24",null,null,"711",74.0,"YEARS","F","WHITE","NOT HISPANIC OR LATINO","Scrnfail","Screen Failure","Scrnfail","Screen Failure","USA","2013-10-24",null,"Screen Failure","Screen Failure",null,null,null,null,null,null,null,"2013-10-24",null,null,null,null,null,null,null,null,null,null,null,null,"N","White",">64","NA",null,null,null,null],["CDISCPILOT01","01-711-1251","1251",null,null,null,null,null,"2014-02-28",null,null,"711",82.0,"YEARS","M","WHITE","NOT HISPANIC OR LATINO","Scrnfail","Screen Failure","Scrnfail","Screen Failure","USA","2014-02-28",null,"Screen Failure","Screen Failure",null,null,null,null,null,null,null,"2014-02-28",null,null,null,null,null,null,null,null,null,null,null,null,"N","White",">64","NA",null,null,null,null],["CDISCPILOT01","01-711-1283","1283",null,null,null,null,null,"2014-03-27",null,null,"711",75.0,"YEARS","F","BLACK OR AFRICAN AMERICAN","NOT HISPANIC OR LATINO","Scrnfail","Screen Failure","Scrnfail","Screen Failure","USA","2014-03-27",null,"Screen Failure","Screen Failure",null,null,null,null,null,null,null,"2014-03-27",null,null,null,null,null,null,null,null,null,null,null,null,"N","Non-white",">64","NA",null,null,null,null],["CDISCPILOT01","01-711-1284","1284",null,null,null,null,null,"2013-08-05",null,null,"711",77.0,"YEARS","F","WHITE","NOT HISPANIC OR LATINO","Scrnfail","Screen Failure","Scrnfail","Screen Failure","USA","2013-08-05",null,"Screen Failure","Screen Failure",null,null,null,null,null,null,null,"2013-08-05",null,null,null,null,null,null,null,null,null,null,null,null,"N","White",">64","NA",null,null,null,null],["CDISCPILOT01","01-711-1290","1290",null,null,null,null,null,"2013-12-20",null,null,"711",61.0,"YEARS","F","WHITE","NOT HISPANIC OR LATINO","Scrnfail","Screen Failure","Scrnfail","Screen Failure","USA","2013-12-20",null,"Screen Failure","Screen Failure",null,null,null,null,null,null,null,"2013-12-20",null,null,null,null,null,null,null,null,null,null,null,null,"N","White","18-64","NA",null,null,null,null],["CDISCPILOT01","01-711-1433","1433","2013-01-27","2013-02-06","2013-01-27","2013-02-05",null,"2013-02-06T10:52",null,null,"711",84.0,"YEARS","F","WHITE","NOT HISPANIC OR LATINO","Xan_Hi","Xanomeline High Dose","Xan_Lo","Xanomeline Low Dose","USA","2013-01-23",-4.0,"Xanomeline High Dose","Xanomeline Low Dose","2013-01-27T00:00:00","H","2013-02-05T23:59:59","H","2013-01-27","2013-02-05",10.0,null,"2013-02-06","DISCONTINUED",null,"2013-01-27",null,null,null,null,null,null,null,"2013-02-06","Y","White",">64","NA",null,null,null,null],["CDISCPILOT01","01-713-1043","1043","2013-09-15","2014-03-24","2013-09-15","2014-03-24",null,"2014-03-24T14:30",null,null,"713",78.0,"YEARS","F","WHITE","NOT HISPANIC OR LATINO","Xan_Lo","Xanomeline Low Dose","Xan_Lo","Xanomeline Low Dose","USA","2013-08-17",-29.0,"Xanomeline Low Dose","Xanomeline Low Dose","2013-09-15T00:00:00","H","2014-03-24T23:59:59","H","2013-09-15","2014-03-24",191.0,null,"2014-03-24","COMPLETED",null,"2013-09-15",null,null,null,null,null,null,null,"2014-03-24","Y","White",">64","NA",null,null,null,null],["CDISCPILOT01","01-713-1073","1073","2014-03-30","2014-10-05","2014-03-30","2014-10-05",null,"2014-10-05T10:30",null,null,"713",74.0,"YEARS","F","BLACK OR AFRICAN AMERICAN","NOT HISPANIC OR LATINO","Xan_Lo","Xanomeline Low Dose","Xan_Lo","Xanomeline Low Dose","USA","2014-03-15",-15.0,"Xanomeline Low Dose","Xanomeline Low Dose","2014-03-30T00:00:00","H","2014-10-05T23:59:59","H","2014-03-30","2014-10-05",190.0,null,"2014-10-05","COMPLETED",null,"2014-03-30",null,null,null,null,null,null,null,"2014-10-05","Y","Non-white",">64","NA",null,null,null,null],["CDISCPILOT01","01-713-1106","1106","2012-10-31","2013-05-06","2012-10-31","2013-05-06",null,"2013-05-06T11:25",null,null,"713",74.0,"YEARS","M","WHITE","NOT HISPANIC OR LATINO","Xan_Hi","Xanomeline High Dose","Xan_Hi","Xanomeline High Dose","USA","2012-10-03",-28.0,"Xanomeline High Dose","Xanomeline High Dose","2012-10-31T00:00:00","H","2013-05-06T23:59:59","H","2012-10-31","2013-05-06",188.0,null,"2013-05-06","COMPLETED",null,"2012-10-31",null,null,null,null,null,null,null,"2013-05-06","Y","White",">64","NA",null,null,null,null],["CDISCPILOT01","01-713-1141","1141","2013-05-31","2013-08-06","2013-05-31","2013-07-01",null,"2013-08-06T12:00",null,null,"713",79.0,"YEARS","M","WHITE","NOT HISPANIC OR LATINO","Xan_Hi","Xanomeline High Dose","Xan_Hi","Xanomeline High Dose","USA","2013-05-23",-8.0,"Xanomeline High Dose","Xanomeline High Dose","2013-05-31T00:00:00","H","2013-07-01T23:59:59","H","2013-05-31","2013-07-01",32.0,null,"2013-08-06","DISCONTINUED",null,"2013-05-31",null,null,null,null,null,null,null,"2013-08-06","Y","White",">64","NA",null,null,null,null],["CDISCPILOT01","01-713-1179","1179","2013-08-09","2014-02-05","2013-08-09","2014-02-05",null,"2014-02-05T15:15",null,null,"713",64.0,"YEARS","F","WHITE","NOT HISPANIC OR LATINO","Pbo","Placebo","Pbo","Placebo","USA","2013-07-11",-29.0,"Placebo","Placebo","2013-08-09T00:00:00","H","2014-02-05T23:59:59","H","2013-08-09","2014-02-05",181.0,null,"2014-02-05","COMPLETED",null,"2013-08-09",null,null,null,null,null,null,null,"2014-02-05","Y","White","18-64","NA",null,null,null,null],["CDISCPILOT01","01-713-1209","1209","2013-05-27","2013-11-22","2013-05-27","2013-11-22",null,"2013-11-22T10:05",null,null,"713",77.0,"YEARS","F","WHITE","NOT HISPANIC OR LATINO","Xan_Hi","Xanomeline High Dose","Xan_Hi","Xanomeline High Dose","USA","2013-05-16",-11.0,"Xanomeline High Dose","Xanomeline High Dose","2013-05-27T00:00:00","H","2013-11-22T23:59:59","H","2013-05-27","2013-11-22",180.0,null,"2013-11-22","COMPLETED",null,"2013-05-27",null,null,null,null,null,null,null,"2013-11-22","Y","White",">64","NA",null,null,null,null],["CDISCPILOT01","01-713-1256","1256","2012-09-19","2013-03-25","2012-09-19","2013-03-25",null,"2013-03-25T10:30",null,null,"713",71.0,"YEARS","M","WHITE","NOT HISPANIC OR LATINO","Pbo","Placebo","Pbo","Placebo","USA","2012-09-10",-9.0,"Placebo","Placebo","2012-09-19T00:00:00","H","2013-03-25T23:59:59","H","2012-09-19","2013-03-25",188.0,null,"2013-03-25","COMPLETED",null,"2012-09-19",null,null,null,null,null,null,null,"2013-03-25","Y","White",">64","NA",null,null,null,null],["CDISCPILOT01","01-713-1269","1269","2014-01-27","2014-07-28","2014-01-27","2014-07-28",null,"2014-07-28T14:00",null,null,"713",73.0,"YEARS","M","WHITE","NOT HISPANIC OR LATINO","Pbo","Placebo","Pbo","Placebo","USA","2014-01-14",-13.0,"Placebo","Placebo","2014-01-27T00:00:00","H","2014-07-28T23:59:59","H","2014-01-27","2014-07-28",183.0,null,"2014-07-28","COMPLETED",null,"2014-01-27",null,null,null,null,null,null,null,"2014-07-28","Y","White",">64","NA",null,null,null,null],["CDISCPILOT01","01-713-1448","1448","2014-01-19","2014-05-17","2014-01-19","2014-05-16",null,"2014-07-27",null,null,"713",71.0,"YEARS","F","WHITE","NOT HISPANIC OR LATINO","Xan_Lo","Xanomeline Low Dose","Xan_Lo","Xanomeline Low Dose","USA","2014-01-05",-14.0,"Xanomeline Low Dose","Xanomeline Low Dose","2014-01-19T00:00:00","H","2014-05-16T23:59:59","H","2014-01-19","2014-05-16",118.0,null,"2014-05-17","DISCONTINUED","2014-07-27","2014-01-19",null,null,null,null,null,null,null,"2014-05-23","Y","White",">64","NA",null,null,null,null],["CDISCPILOT01","01-714-1035","1035","2014-04-17","2014-10-16","2014-04-17","2014-10-16",null,"2014-10-16T12:00",null,null,"714",88.0,"YEARS","F","WHITE","NOT HISPANIC OR LATINO","Pbo","Placebo","Pbo","Placebo","USA","2014-04-03",-14.0,"Placebo","Placebo","2014-04-17T00:00:00","H","2014-10-16T23:59:59","H","2014-04-17","2014-10-16",183.0,null,"2014-10-16","COMPLETED",null,"2014-04-17",null,null,null,null,null,null,null,"2014-10-16","Y","White",">64","NA",null,null,null,null],["CDISCPILOT01","01-714-1068","1068","2013-08-08","2013-10-16","2013-08-08","2013-10-08",null,"2013-10-23",null,null,"714",79.0,"YEARS","F","WHITE","NOT HISPANIC OR LATINO","Xan_Lo","Xanomeline Low Dose","Xan_Lo","Xanomeline Low Dose","USA","2013-07-31",-8.0,"Xanomeline Low Dose","Xanomeline Low Dose","2013-08-08T00:00:00","H","2013-10-08T23:59:59","H","2013-08-08","2013-10-08",62.0,null,"2013-10-16","DISCONTINUED",null,"2013-08-08",null,null,null,null,null,null,null,"2013-10-16","Y","White",">64","NA",null,null,null,null],["CDISCPILOT01","01-714-1195","1195","2013-04-26","2013-10-23","2013-04-26","2013-10-23",null,"2013-10-23T10:55",null,null,"714",75.0,"YEARS","M","WHITE","NOT HISPANIC OR LATINO","Xan_Lo","Xanomeline Low Dose","Xan_Lo","Xanomeline Low Dose","USA","2013-04-16",-10.0,"Xanomeline Low Dose","Xanomeline Low Dose","2013-04-26T00:00:00","H","2013-10-23T23:59:59","H","2013-04-26","2013-10-23",181.0,null,"2013-10-23","COMPLETED",null,"2013-04-26",null,null,null,null,null,null,null,"2013-10-23","Y","White",">64","NA",null,null,null,null],["CDISCPILOT01","01-714-1288","1288","2013-12-04","2014-06-17","2013-12-04","2014-06-17",null,"2014-06-17T13:00",null,null,"714",77.0,"YEARS","M","BLACK OR AFRICAN AMERICAN","NOT HISPANIC OR LATINO","Xan_Hi","Xanomeline High Dose","Xan_Hi","Xanomeline High Dose","USA","2013-11-24",-10.0,"Xanomeline High Dose","Xanomeline High Dose","2013-12-04T00:00:00","H","2014-06-17T23:59:59","H","2013-12-04","2014-06-17",196.0,null,"2014-06-17","COMPLETED",null,"2013-12-04",null,null,null,null,null,null,null,"2014-06-17","Y","Non-white",">64","NA",null,null,null,null],["CDISCPILOT01","01-714-1375","1375","2013-02-26","2013-09-07","2013-02-26","2013-09-07",null,"2013-09-07T13:58",null,null,"714",78.0,"YEARS","F","WHITE","NOT HISPANIC OR LATINO","Pbo","Placebo","Pbo","Placebo","USA","2013-02-23",-3.0,"Placebo","Placebo","2013-02-26T00:00:00","H","2013-09-07T23:59:59","H","2013-02-26","2013-09-07",194.0,null,"2013-09-07","COMPLETED",null,"2013-02-26",null,null,null,null,null,null,null,"2013-09-07","Y","White",">64","NA",null,null,null,null],["CDISCPILOT01","01-714-1425","1425","2013-08-15","2013-08-22","2013-08-15","2013-08-19",null,"2013-08-22T14:55",null,null,"714",81.0,"YEARS","M","WHITE","NOT HISPANIC OR LATINO","Xan_Hi","Xanomeline High Dose","Xan_Lo","Xanomeline Low Dose","USA","2013-08-11",-4.0,"Xanomeline High Dose","Xanomeline Low Dose","2013-08-15T00:00:00","H","2013-08-19T23:59:59","H","2013-08-15","2013-08-19",5.0,null,"2013-08-22","DISCONTINUED",null,"2013-08-15",null,null,null,null,null,null,null,"2013-08-22","Y","White",">64","NA",null,null,null,null],["CDISCPILOT01","01-715-1085","1085","2013-02-16","2013-08-18","2013-02-16","2013-08-18",null,"2013-08-18T10:22",null,null,"715",77.0,"YEARS","F","WHITE","NOT HISPANIC OR LATINO","Xan_Lo","Xanomeline Low Dose","Xan_Lo","Xanomeline Low Dose","USA","2013-02-03",-13.0,"Xanomeline Low Dose","Xanomeline Low Dose","2013-02-16T00:00:00","H","2013-08-18T23:59:59","H","2013-02-16","2013-08-18",184.0,null,"2013-08-18","COMPLETED",null,"2013-02-16",null,null,null,null,null,null,null,"2013-08-18","Y","White",">64","NA",null,null,null,null],["CDISCPILOT01","01-715-1107","1107","2013-02-26","2013-05-13","2013-02-26","2013-05-07",null,"2013-08-14T09:52",null,null,"715",65.0,"YEARS","M","WHITE","NOT HISPANIC OR LATINO","Xan_Lo","Xanomeline Low Dose","Xan_Lo","Xanomeline Low Dose","USA","2013-02-12",-14.0,"Xanomeline Low Dose","Xanomeline Low Dose","2013-02-26T00:00:00","H","2013-05-07T23:59:59","H","2013-02-26","2013-05-07",71.0,null,"2013-05-13","DISCONTINUED","2013-08-14","2013-02-26",null,null,null,null,null,null,null,"2013-08-14","Y","White",">64","NA",null,null,null,null],["CDISCPILOT01","01-715-1134","1134",null,null,null,null,null,"2014-05-21",null,null,"715",50.0,"YEARS","F","WHITE","NOT HISPANIC OR LATINO","Scrnfail","Screen Failure","Scrnfail","Screen Failure","USA","2014-04-17",null,"Screen Failure","Screen Failure",null,null,null,null,null,null,null,"2014-04-17",null,null,null,null,null,null,null,null,null,null,null,null,"N","White","18-64","NA",null,null,null,null],["CDISCPILOT01","01-715-1155","1155","2013-12-13","2014-04-26","2013-12-13","2014-01-25",null,"2014-04-26",null,null,"715",59.0,"YEARS","F","WHITE","NOT HISPANIC OR LATINO","Pbo","Placebo","Pbo","Placebo","USA","2013-11-29",-14.0,"Placebo","Placebo","2013-12-13T00:00:00","H","2014-01-25T23:59:59","H","2013-12-13","2014-01-25",44.0,null,"2014-04-26","DISCONTINUED",null,"2013-12-13",null,null,null,null,null,null,null,"2014-01-25","Y","White","18-64","NA",null,null,null,null],["CDISCPILOT01","01-715-1207","1207","2012-11-18","2013-06-01","2012-11-18","2013-05-27",null,"2013-06-01T09:30",null,null,"715",78.0,"YEARS","F","WHITE","NOT HISPANIC OR LATINO","Pbo","Placebo","Pbo","Placebo","USA","2012-11-12",-6.0,"Placebo","Placebo","2012-11-18T00:00:00","H","2013-05-27T23:59:59","H","2012-11-18","2013-05-27",191.0,null,"2013-06-01","COMPLETED",null,"2012-11-18",null,null,null,null,null,null,null,"2013-06-01","Y","White",">64","NA",null,null,null,null],["CDISCPILOT01","01-715-1225","1225",null,null,null,null,null,"2013-05-07",null,null,"715",77.0,"YEARS","F","WHITE","NOT HISPANIC OR LATINO","Scrnfail","Screen Failure","Scrnfail","Screen Failure","USA","2013-01-22",null,"Screen Failure","Screen Failure",null,null,null,null,null,null,null,"2013-01-22",null,null,null,null,null,null,null,null,null,null,null,null,"N","White",">64","NA",null,null,null,null],["CDISCPILOT01","01-715-1319","1319","2013-02-17","2013-03-18","2013-02-17","2013-03-05",null,"2013-03-18T10:28",null,null,"715",65.0,"YEARS","M","WHITE","NOT HISPANIC OR LATINO","Xan_Hi","Xanomeline High Dose","Xan_Hi","Xanomeline High Dose","USA","2013-02-03",-14.0,"Xanomeline High Dose","Xanomeline High Dose","2013-02-17T00:00:00","H","2013-03-05T23:59:59","H","2013-02-17","2013-03-05",17.0,null,"2013-03-18","DISCONTINUED",null,"2013-02-17",null,null,null,null,null,null,null,"2013-03-18","Y","White",">64","NA",null,null,null,null],["CDISCPILOT01","01-715-1321","1321","2014-02-11","2014-04-22","2014-02-11","2014-04-21",null,"2014-04-22T11:12",null,null,"715",75.0,"YEARS","F","WHITE","NOT HISPANIC OR LATINO","Xan_Hi","Xanomeline High Dose","Xan_Hi","Xanomeline High Dose","USA","2014-02-06",-5.0,"Xanomeline High Dose","Xanomeline High Dose","2014-02-11T00:00:00","H","2014-04-21T23:59:59","H","2014-02-11","2014-04-21",70.0,null,"2014-04-22","DISCONTINUED",null,"2014-02-11",null,null,null,null,null,null,null,"2014-04-22","Y","White",">64","NA",null,null,null,null],["CDISCPILOT01","01-715-1333","1333",null,null,null,null,null,"2013-11-03",null,null,"715",75.0,"YEARS","F","WHITE","NOT HISPANIC OR LATINO","Scrnfail","Screen Failure","Scrnfail","Screen Failure","USA","2013-06-03",null,"Screen Failure","Screen Failure",null,null,null,null,null,null,null,"2013-06-03",null,null,null,null,null,null,null,null,null,null,null,null,"N","White",">64","NA",null,null,null,null],["CDISCPILOT01","01-715-1397","1397","2013-04-03","2013-10-03","2013-04-03","2013-10-02",null,"2013-10-03T10:50",null,null,"715",76.0,"YEARS","F","WHITE","NOT HISPANIC OR LATINO","Pbo","Placebo","Pbo","Placebo","USA","2013-03-20",-14.0,"Placebo","Placebo","2013-04-03T00:00:00","H","2013-10-02T23:59:59","H","2013-04-03","2013-10-02",183.0,null,"2013-10-03","COMPLETED",null,"2013-04-03",null,null,null,null,null,null,null,"2013-10-03","Y","White",">64","NA",null,null,null,null],["CDISCPILOT01","01-715-1405","1405","2013-07-06","2013-07-13","2013-07-06","2013-07-07",null,"2014-01-11",null,null,"715",69.0,"YEARS","M","WHITE","NOT HISPANIC OR LATINO","Xan_Lo","Xanomeline Low Dose","Xan_Lo","Xanomeline Low Dose","USA","2013-06-27",-9.0,"Xanomeline Low Dose","Xanomeline Low Dose","2013-07-06T00:00:00","H","2013-07-07T23:59:59","H","2013-07-06","2013-07-07",2.0,null,"2013-07-13","DISCONTINUED","2014-01-11","2013-07-06",null,null,null,null,null,null,null,"2013-07-13","Y","White",">64","NA",null,null,null,null],["CDISCPILOT01","01-715-1407","1407",null,null,null,null,null,"2013-02-07",null,null,"715",73.0,"YEARS","F","WHITE","NOT HISPANIC OR LATINO","Scrnfail","Screen Failure","Scrnfail","Screen Failure","USA","2012-10-24",null,"Screen Failure","Screen Failure",null,null,null,null,null,null,null,"2012-10-24",null,null,null,null,null,null,null,null,null,null,null,null,"N","White",">64","NA",null,null,null,null],["CDISCPILOT01","01-716-1003","1003",null,null,null,null,null,"2014-03-29",null,null,"716",79.0,"YEARS","M","WHITE","HISPANIC OR LATINO","Scrnfail","Screen Failure","Scrnfail","Screen Failure","USA","2014-03-29",null,"Screen Failure","Screen Failure",null,null,null,null,null,null,null,"2014-03-29",null,null,null,null,null,null,null,null,null,null,null,null,"N","White",">64","NA",null,null,null,null],["CDISCPILOT01","01-716-1024","1024","2012-07-09","2013-01-20","2012-07-09","2013-01-20",null,"2013-01-20T11:10",null,null,"716",87.0,"YEARS","F","WHITE","NOT HISPANIC OR LATINO","Pbo","Placebo","Pbo","Placebo","USA","2012-07-06",-3.0,"Placebo","Placebo","2012-07-09T00:00:00","H","2013-01-20T23:59:59","H","2012-07-09","2013-01-20",196.0,null,"2013-01-20","COMPLETED",null,"2012-07-09",null,null,null,null,null,null,null,"2013-01-20","Y","White",">64","NA",null,null,null,null],["CDISCPILOT01","01-716-1026","1026","2014-04-02","2014-10-16","2014-04-02","2014-10-16",null,"2014-10-16T13:35",null,null,"716",73.0,"YEARS","F","WHITE","NOT HISPANIC OR LATINO","Pbo","Placebo","Pbo","Placebo","USA","2014-03-23",-10.0,"Placebo","Placebo","2014-04-02T00:00:00","H","2014-10-16T23:59:59","H","2014-04-02","2014-10-16",198.0,null,"2014-10-16","COMPLETED",null,"2014-04-02",null,null,null,null,null,null,null,"2014-10-16","Y","White",">64","NA",null,null,null,null],["CDISCPILOT01","01-716-1030","1030","2013-12-28","2014-01-10","2013-12-28","2014-01-02",null,"2014-01-10T12:30",null,null,"716",83.0,"YEARS","F","WHITE","NOT HISPANIC OR LATINO","Xan_Hi","Xanomeline High Dose","Xan_Lo","Xanomeline Low Dose","USA","2013-12-25",-3.0,"Xanomeline High Dose","Xanomeline Low Dose","2013-12-28T00:00:00","H","2014-01-02T23:59:59","H","2013-12-28","2014-01-02",6.0,null,"2014-01-10","DISCONTINUED",null,"2013-12-28",null,null,null,null,null,null,null,"2014-01-10","Y","White",">64","NA",null,null,null,null],["CDISCPILOT01","01-716-1044","1044","2013-04-27","2013-11-03","2013-04-27","2013-11-03",null,"2013-11-03T13:10",null,null,"716",74.0,"YEARS","M","WHITE","NOT HISPANIC OR LATINO","Pbo","Placebo","Pbo","Placebo","USA","2013-04-20",-7.0,"Placebo","Placebo","2013-04-27T00:00:00","H","2013-11-03T23:59:59","H","2013-04-27","2013-11-03",191.0,null,"2013-11-03","COMPLETED",null,"2013-04-27",null,null,null,null,null,null,null,"2013-11-03","Y","White",">64","NA",null,null,null,null],["CDISCPILOT01","01-716-1061","1061",null,null,null,null,null,"2014-02-14",null,null,"716",81.0,"YEARS","M","WHITE","NOT HISPANIC OR LATINO","Scrnfail","Screen Failure","Scrnfail","Screen Failure","USA","2014-02-14",null,"Screen Failure","Screen Failure",null,null,null,null,null,null,null,"2014-02-14",null,null,null,null,null,null,null,null,null,null,null,null,"N","White",">64","NA",null,null,null,null],["CDISCPILOT01","01-716-1063","1063","2013-05-09","2013-08-28","2013-05-09","2013-08-25",null,"2013-11-17",null,null,"716",80.0,"YEARS","M","WHITE","NOT HISPANIC OR LATINO","Xan_Lo","Xanomeline Low Dose","Xan_Lo","Xanomeline Low Dose","USA","2013-05-06",-3.0,"Xanomeline Low Dose","Xanomeline Low Dose","2013-05-09T00:00:00","H","2013-08-25T23:59:59","H","2013-05-09","2013-08-25",109.0,null,"2013-08-28","DISCONTINUED","2013-11-17","2013-05-09",null,null,null,null,null,null,null,"2013-08-28","Y","White",">64","NA",null,null,null,null],["CDISCPILOT01","01-716-1071","1071","2013-06-08","2013-08-01","2013-06-08","2013-08-01",null,"2013-12-16",null,null,"716",78.0,"YEARS","F","WHITE","NOT HISPANIC OR LATINO","Xan_Hi","Xanomeline High Dose","Xan_Hi","Xanomeline High Dose","USA","2013-06-03",-5.0,"Xanomeline High Dose","Xanomeline High Dose","2013-06-08T00:00:00","H","2013-08-01T23:59:59","H","2013-06-08","2013-08-01",55.0,null,"2013-08-01","DISCONTINUED","2013-12-16","2013-06-08",null,null,null,null,null,null,null,"2013-08-01","Y","White",">64","NA",null,null,null,null],["CDISCPILOT01","01-716-1094","1094","2012-12-19","2013-01-26","2012-12-19","2013-01-24",null,"2013-06-22",null,null,"716",82.0,"YEARS","M","WHITE","NOT HISPANIC OR LATINO","Xan_Lo","Xanomeline Low Dose","Xan_Lo","Xanomeline Low Dose","USA","2012-12-16",-3.0,"Xanomeline Low Dose","Xanomeline Low Dose","2012-12-19T00:00:00","H","2013-01-24T23:59:59","H","2012-12-19","2013-01-24",37.0,null,"2013-01-26","DISCONTINUED","2013-06-22","2012-12-19",null,null,null,null,null,null,null,"2013-01-26","Y","White",">64","NA",null,null,null,null],["CDISCPILOT01","01-716-1103","1103","2014-03-20","2014-09-20","2014-03-20","2014-09-20",null,"2014-09-20T12:10",null,null,"716",79.0,"YEARS","M","WHITE","NOT HISPANIC OR LATINO","Xan_Lo","Xanomeline Low Dose","Xan_Lo","Xanomeline Low Dose","USA","2014-03-18",-2.0,"Xanomeline Low Dose","Xanomeline Low Dose","2014-03-20T00:00:00","H","2014-09-20T23:59:59","H","2014-03-20","2014-09-20",185.0,null,"2014-09-20","COMPLETED",null,"2014-03-20",null,null,null,null,null,null,null,"2014-09-20","Y","White",">64","NA",null,null,null,null],["CDISCPILOT01","01-716-1108","1108","2013-02-12","2013-08-10","2013-02-12","2013-08-10",null,"2013-08-10T09:55",null,null,"716",86.0,"YEARS","F","WHITE","NOT HISPANIC OR LATINO","Pbo","Placebo","Pbo","Placebo","USA","2013-02-04",-8.0,"Placebo","Placebo","2013-02-12T00:00:00","H","2013-08-10T23:59:59","H","2013-02-12","2013-08-10",180.0,null,"2013-08-10","COMPLETED",null,"2013-02-12",null,null,null,null,null,null,null,"2013-08-10","Y","White",">64","NA",null,null,null,null],["CDISCPILOT01","01-716-1151","1151","2013-02-01","2013-06-07","2013-02-01","2013-05-11",null,"2013-08-13",null,null,"716",83.0,"YEARS","F","WHITE","NOT HISPANIC OR LATINO","Xan_Lo","Xanomeline Low Dose","Xan_Lo","Xanomeline Low Dose","USA","2013-01-23",-9.0,"Xanomeline Low Dose","Xanomeline Low Dose","2013-02-01T00:00:00","H","2013-05-11T23:59:59","H","2013-02-01","2013-05-11",100.0,null,"2013-06-07","DISCONTINUED","2013-08-13","2013-02-01",null,null,null,null,null,null,null,"2013-06-07","Y","White",">64","NA",null,null,null,null],["CDISCPILOT01","01-716-1157","1157","2013-10-02","2014-04-05","2013-10-02","2014-04-04",null,"2014-04-05T11:10",null,null,"716",85.0,"YEARS","M","WHITE","NOT HISPANIC OR LATINO","Xan_Lo","Xanomeline Low Dose","Xan_Lo","Xanomeline Low Dose","USA","2013-09-23",-9.0,"Xanomeline Low Dose","Xanomeline Low Dose","2013-10-02T00:00:00","H","2014-04-04T23:59:59","H","2013-10-02","2014-04-04",185.0,null,"2014-04-05","COMPLETED",null,"2013-10-02",null,null,null,null,null,null,null,"2014-04-05","Y","White",">64","NA",null,null,null,null],["CDISCPILOT01","01-716-1160","1160","2013-04-05","2013-10-11","2013-04-05","2013-10-11",null,"2013-10-11T13:30",null,null,"716",83.0,"YEARS","F","WHITE","NOT HISPANIC OR LATINO","Pbo","Placebo","Pbo","Placebo","USA","2013-03-23",-13.0,"Placebo","Placebo","2013-04-05T00:00:00","H","2013-10-11T23:59:59","H","2013-04-05","2013-10-11",190.0,null,"2013-10-11","COMPLETED",null,"2013-04-05",null,null,null,null,null,null,null,"2013-10-11","Y","White",">64","NA",null,null,null,null],["CDISCPILOT01","01-716-1167","1167","2012-10-08","2013-04-13","2012-10-08","2013-04-12",null,"2013-04-13T11:10",null,null,"716",68.0,"YEARS","M","WHITE","NOT HISPANIC OR LATINO","Xan_Lo","Xanomeline Low Dose","Xan_Lo","Xanomeline Low Dose","USA","2012-09-30",-8.0,"Xanomeline Low Dose","Xanomeline Low Dose","2012-10-08T00:00:00","H","2013-04-12T23:59:59","H","2012-10-08","2013-04-12",187.0,null,"2013-04-13","COMPLETED",null,"2012-10-08",null,null,null,null,null,null,null,"2013-04-13","Y","White",">64","NA",null,null,null,null],["CDISCPILOT01","01-716-1177","1177","2014-09-02","2015-03-05","2014-09-02","2015-03-05",null,"2015-03-05T14:40",null,null,"716",72.0,"YEARS","M","WHITE","NOT HISPANIC OR LATINO","Pbo","Placebo","Pbo","Placebo","USA","2014-08-29",-4.0,"Placebo","Placebo","2014-09-02T00:00:00","H","2015-03-05T23:59:59","H","2014-09-02","2015-03-05",185.0,null,"2015-03-05","COMPLETED",null,"2014-09-02",null,null,null,null,null,null,null,"2015-03-05","Y","White",">64","NA",null,null,null,null],["CDISCPILOT01","01-716-1189","1189","2012-10-09","2013-03-03","2012-10-09","2013-02-27",null,"2013-04-08",null,null,"716",81.0,"YEARS","M","WHITE","NOT HISPANIC OR LATINO","Xan_Hi","Xanomeline High Dose","Xan_Hi","Xanomeline High Dose","USA","2012-10-07",-2.0,"Xanomeline High Dose","Xanomeline High Dose","2012-10-09T00:00:00","H","2013-02-27T23:59:59","H","2012-10-09","2013-02-27",142.0,null,"2013-03-03","DISCONTINUED","2013-04-08","2012-10-09",null,null,null,null,null,null,null,"2013-03-03","Y","White",">64","NA",null,null,null,null],["CDISCPILOT01","01-716-1229","1229","2013-02-20","2013-04-02","2013-02-20","2013-03-31",null,"2013-04-02T11:15",null,null,"716",73.0,"YEARS","F","WHITE","NOT HISPANIC OR LATINO","Xan_Hi","Xanomeline High Dose","Xan_Hi","Xanomeline High Dose","USA","2013-02-14",-6.0,"Xanomeline High Dose","Xanomeline High Dose","2013-02-20T00:00:00","H","2013-03-31T23:59:59","H","2013-02-20","2013-03-31",40.0,null,"2013-04-02","DISCONTINUED",null,"2013-02-20",null,null,null,null,null,null,null,"2013-04-02","Y","White",">64","NA",null,null,null,null],["CDISCPILOT01","01-716-1244","1244",null,null,null,null,null,"2013-09-03",null,null,"716",72.0,"YEARS","F","WHITE","NOT HISPANIC OR LATINO","Scrnfail","Screen Failure","Scrnfail","Screen Failure","USA","2013-08-15",null,"Screen Failure","Screen Failure",null,null,null,null,null,null,null,"2013-08-15",null,null,null,null,null,null,null,null,null,null,null,null,"N","White",">64","NA",null,null,null,null],["CDISCPILOT01","01-716-1298","1298","2013-04-08","2013-07-06","2013-04-08","2013-06-28",null,"2013-10-07",null,null,"716",76.0,"YEARS","F","WHITE","NOT HISPANIC OR LATINO","Xan_Lo","Xanomeline Low Dose","Xan_Lo","Xanomeline Low Dose","USA","2013-04-04",-4.0,"Xanomeline Low Dose","Xanomeline Low Dose","2013-04-08T00:00:00","H","2013-06-28T23:59:59","H","2013-04-08","2013-06-28",82.0,null,"2013-07-06","DISCONTINUED","2013-10-07","2013-04-08",null,null,null,null,null,null,null,"2013-07-06","Y","White",">64","NA",null,null,null,null],["CDISCPILOT01","01-716-1305","1305",null,null,null,null,null,"2013-08-28",null,null,"716",73.0,"YEARS","F","WHITE","NOT HISPANIC OR LATINO","Scrnfail","Screen Failure","Scrnfail","Screen Failure","USA","2013-08-06",null,"Screen Failure","Screen Failure",null,null,null,null,null,null,null,"2013-08-06",null,null,null,null,null,null,null,null,null,null,null,null,"N","White",">64","NA",null,null,null,null],["CDISCPILOT01","01-716-1308","1308","2013-08-28","2013-10-07","2013-08-28","2013-10-07",null,"2013-10-07T15:50",null,null,"716",76.0,"YEARS","F","WHITE","NOT HISPANIC OR LATINO","Pbo","Placebo","Pbo","Placebo","USA","2013-08-23",-5.0,"Placebo","Placebo","2013-08-28T00:00:00","H","2013-10-07T23:59:59","H","2013-08-28","2013-10-07",41.0,null,"2013-10-07","DISCONTINUED",null,"2013-08-28",null,null,null,null,null,null,null,"2013-10-07","Y","White",">64","NA",null,null,null,null],["CDISCPILOT01","01-716-1311","1311","2014-05-14","2014-09-30","2014-05-14","2014-09-21",null,"2014-11-15",null,null,"716",78.0,"YEARS","M","WHITE","NOT HISPANIC OR LATINO","Xan_Lo","Xanomeline Low Dose","Xan_Lo","Xanomeline Low Dose","USA","2014-05-08",-6.0,"Xanomeline Low Dose","Xanomeline Low Dose","2014-05-14T00:00:00","H","2014-09-21T23:59:59","H","2014-05-14","2014-09-21",131.0,null,"2014-09-30","DISCONTINUED","2014-11-15","2014-05-14",null,null,null,null,null,null,null,"2014-09-30","Y","White",">64","NA",null,null,null,null],["CDISCPILOT01","01-716-1331","1331",null,null,null,null,null,"2013-11-25",null,null,"716",59.0,"YEARS","F","WHITE","NOT HISPANIC OR LATINO","Scrnfail","Screen Failure","Scrnfail","Screen Failure","USA","2013-11-25",null,"Screen Failure","Screen Failure",null,null,null,null,null,null,null,"2013-11-25",null,null,null,null,null,null,null,null,null,null,null,null,"N","White","18-64","NA",null,null,null,null],["CDISCPILOT01","01-716-1364","1364","2013-07-04","2014-01-09","2013-07-04","2014-01-09",null,"2014-01-09T15:30",null,null,"716",84.0,"YEARS","F","WHITE","NOT HISPANIC OR LATINO","Xan_Hi","Xanomeline High Dose","Xan_Hi","Xanomeline High Dose","USA","2013-06-27",-7.0,"Xanomeline High Dose","Xanomeline High Dose","2013-07-04T00:00:00","H","2014-01-09T23:59:59","H","2013-07-04","2014-01-09",190.0,null,"2014-01-09","COMPLETED",null,"2013-07-04",null,null,null,null,null,null,null,"2014-01-09","Y","White",">64","NA",null,null,null,null],["CDISCPILOT01","01-716-1373","1373","2012-12-14","2013-02-28","2012-12-14","2013-02-27",null,"2013-02-28T10:23",null,null,"716",74.0,"YEARS","M","WHITE","NOT HISPANIC OR LATINO","Xan_Hi","Xanomeline High Dose","Xan_Hi","Xanomeline High Dose","USA","2012-11-24",-20.0,"Xanomeline High Dose","Xanomeline High Dose","2012-12-14T00:00:00","H","2013-02-27T23:59:59","H","2012-12-14","2013-02-27",76.0,null,"2013-02-28","DISCONTINUED",null,"2012-12-14",null,null,null,null,null,null,null,"2013-02-28","Y","White",">64","NA",null,null,null,null],["CDISCPILOT01","01-716-1418","1418","2013-05-05","2013-11-20","2013-05-05","2013-11-20",null,"2013-11-20T11:44",null,null,"716",80.0,"YEARS","F","WHITE","NOT HISPANIC OR LATINO","Xan_Hi","Xanomeline High Dose","Xan_Hi","Xanomeline High Dose","USA","2013-04-27",-8.0,"Xanomeline High Dose","Xanomeline High Dose","2013-05-05T00:00:00","H","2013-11-20T23:59:59","H","2013-05-05","2013-11-20",200.0,null,"2013-11-20","COMPLETED",null,"2013-05-05",null,null,null,null,null,null,null,"2013-11-20","Y","White",">64","NA",null,null,null,null],["CDISCPILOT01","01-716-1441","1441","2014-01-22","2014-07-22","2014-01-22","2014-07-22",null,"2014-07-22T10:00",null,null,"716",85.0,"YEARS","M","WHITE","NOT HISPANIC OR LATINO","Pbo","Placebo","Pbo","Placebo","USA","2014-01-13",-9.0,"Placebo","Placebo","2014-01-22T00:00:00","H","2014-07-22T23:59:59","H","2014-01-22","2014-07-22",182.0,null,"2014-07-22","COMPLETED",null,"2014-01-22",null,null,null,null,null,null,null,"2014-07-22","Y","White",">64","NA",null,null,null,null],["CDISCPILOT01","01-716-1447","1447","2013-12-16","2014-06-17","2013-12-16","2014-06-17",null,"2014-06-17T12:00",null,null,"716",72.0,"YEARS","F","WHITE","NOT HISPANIC OR LATINO","Xan_Hi","Xanomeline High Dose","Xan_Hi","Xanomeline High Dose","USA","2013-12-10",-6.0,"Xanomeline High Dose","Xanomeline High Dose","2013-12-16T00:00:00","H","2014-06-17T23:59:59","H","2013-12-16","2014-06-17",184.0,null,"2014-06-17","COMPLETED",null,"2013-12-16",null,null,null,null,null,null,null,"2014-06-17","Y","White",">64","NA",null,null,null,null],["CDISCPILOT01","01-717-1004","1004","2014-01-14","2014-07-16","2014-01-14","2014-07-16",null,"2014-07-16T13:21",null,null,"717",80.0,"YEARS","F","WHITE","NOT HISPANIC OR LATINO","Xan_Lo","Xanomeline Low Dose","Xan_Lo","Xanomeline Low Dose","USA","2014-01-01",-13.0,"Xanomeline Low Dose","Xanomeline Low Dose","2014-01-14T00:00:00","H","2014-07-16T23:59:59","H","2014-01-14","2014-07-16",184.0,null,"2014-07-16","COMPLETED",null,"2014-01-14",null,null,null,null,null,null,null,"2014-07-16","Y","White",">64","NA",null,null,null,null],["CDISCPILOT01","01-717-1109","1109","2014-01-27","2014-07-28","2014-01-27","2014-07-28",null,"2014-07-28T10:53",null,null,"717",84.0,"YEARS","M","WHITE","NOT HISPANIC OR LATINO","Xan_Hi","Xanomeline High Dose","Xan_Hi","Xanomeline High Dose","USA","2014-01-20",-7.0,"Xanomeline High Dose","Xanomeline High Dose","2014-01-27T00:00:00","H","2014-07-28T23:59:59","H","2014-01-27","2014-07-28",183.0,null,"2014-07-28","COMPLETED",null,"2014-01-27",null,null,null,null,null,null,null,"2014-07-28","Y","White",">64","NA",null,null,null,null],["CDISCPILOT01","01-717-1174","1174","2013-01-22","2013-07-24","2013-01-22","2013-07-24",null,"2013-07-24T15:15",null,null,"717",73.0,"YEARS","M","WHITE","NOT HISPANIC OR LATINO","Xan_Hi","Xanomeline High Dose","Xan_Hi","Xanomeline High Dose","USA","2013-01-16",-6.0,"Xanomeline High Dose","Xanomeline High Dose","2013-01-22T00:00:00","H","2013-07-24T23:59:59","H","2013-01-22","2013-07-24",184.0,null,"2013-07-24","COMPLETED",null,"2013-01-22",null,null,null,null,null,null,null,"2013-07-24","Y","White",">64","NA",null,null,null,null],["CDISCPILOT01","01-717-1201","1201","2013-12-19","2014-02-21","2013-12-19","2014-02-21",null,"2014-02-21T11:14",null,null,"717",85.0,"YEARS","F","WHITE","NOT HISPANIC OR LATINO","Pbo","Placebo","Pbo","Placebo","USA","2013-12-12",-7.0,"Placebo","Placebo","2013-12-19T00:00:00","H","2014-02-21T23:59:59","H","2013-12-19","2014-02-21",65.0,null,"2014-02-21","DISCONTINUED",null,"2013-12-19",null,null,null,null,null,null,null,"2014-02-21","Y","White",">64","NA",null,null,null,null],["CDISCPILOT01","01-717-1344","1344","2014-01-11","2014-03-14","2014-01-11","2014-03-14",null,"2014-03-14T14:14",null,null,"717",64.0,"YEARS","F","WHITE","NOT HISPANIC OR LATINO","Pbo","Placebo","Pbo","Placebo","USA","2014-01-01",-10.0,"Placebo","Placebo","2014-01-11T00:00:00","H","2014-03-14T23:59:59","H","2014-01-11","2014-03-14",63.0,null,"2014-03-14","DISCONTINUED",null,"2014-01-11",null,null,null,null,null,null,null,"2014-03-14","Y","White","18-64","NA",null,null,null,null],["CDISCPILOT01","01-717-1357","1357","2013-05-01","2013-10-20","2013-05-01","2013-10-14",null,"2013-10-20T10:52",null,null,"717",77.0,"YEARS","M","WHITE","NOT HISPANIC OR LATINO","Xan_Hi","Xanomeline High Dose","Xan_Hi","Xanomeline High Dose","USA","2013-04-21",-10.0,"Xanomeline High Dose","Xanomeline High Dose","2013-05-01T00:00:00","H","2013-10-14T23:59:59","H","2013-05-01","2013-10-14",167.0,null,"2013-10-20","DISCONTINUED",null,"2013-05-01",null,null,null,null,null,null,null,"2013-10-20","Y","White",">64","NA",null,null,null,null],["CDISCPILOT01","01-717-1446","1446","2013-09-01","2014-03-04","2013-09-01","2014-03-03",null,"2014-03-17T09:52",null,null,"717",75.0,"YEARS","F","WHITE","NOT HISPANIC OR LATINO","Xan_Lo","Xanomeline Low Dose","Xan_Lo","Xanomeline Low Dose","USA","2013-08-20",-12.0,"Xanomeline Low Dose","Xanomeline Low Dose","2013-09-01T00:00:00","H","2014-03-03T23:59:59","H","2013-09-01","2014-03-03",184.0,null,"2014-03-04","COMPLETED",null,"2013-09-01",null,null,null,null,null,null,null,"2014-03-17","Y","White",">64","NA",null,null,null,null],["CDISCPILOT01","01-718-1066","1066","2013-07-07","2013-07-30","2013-07-07","2013-07-16",null,"2014-01-13",null,null,"718",79.0,"YEARS","F","WHITE","NOT HISPANIC OR LATINO","Xan_Lo","Xanomeline Low Dose","Xan_Lo","Xanomeline Low Dose","USA","2013-06-28",-9.0,"Xanomeline Low Dose","Xanomeline Low Dose","2013-07-07T00:00:00","H","2013-07-16T23:59:59","H","2013-07-07","2013-07-16",10.0,null,"2013-07-30","DISCONTINUED",null,"2013-07-07",null,null,null,null,null,null,null,"2013-07-30","Y","White",">64","NA",null,null,null,null],["CDISCPILOT01","01-718-1079","1079","2012-09-19","2012-11-06","2012-09-19","2012-10-31",null,"2013-03-05",null,null,"718",67.0,"YEARS","F","WHITE","NOT HISPANIC OR LATINO","Xan_Lo","Xanomeline Low Dose","Xan_Lo","Xanomeline Low Dose","USA","2012-09-11",-8.0,"Xanomeline Low Dose","Xanomeline Low Dose","2012-09-19T00:00:00","H","2012-10-31T23:59:59","H","2012-09-19","2012-10-31",43.0,null,"2012-11-06","DISCONTINUED","2013-03-05","2012-09-19",null,null,null,null,null,null,null,"2012-10-31","Y","White",">64","NA",null,null,null,null],["CDISCPILOT01","01-718-1101","1101","2013-02-17","2013-08-02","2013-02-17","2013-07-31",null,"2013-08-02T11:30",null,null,"718",82.0,"YEARS","M","BLACK OR AFRICAN AMERICAN","NOT HISPANIC OR LATINO","Xan_Hi","Xanomeline High Dose","Xan_Hi","Xanomeline High Dose","USA","2013-02-01",-16.0,"Xanomeline High Dose","Xanomeline High Dose","2013-02-17T00:00:00","H","2013-07-31T23:59:59","H","2013-02-17","2013-07-31",165.0,null,"2013-08-02","DISCONTINUED",null,"2013-02-17",null,null,null,null,null,null,null,"2013-08-02","Y","Non-white",">64","NA",null,null,null,null],["CDISCPILOT01","01-718-1139","1139","2013-05-19","2013-11-17","2013-05-19","2013-11-17",null,"2013-11-17T10:30",null,null,"718",77.0,"YEARS","M","WHITE","NOT HISPANIC OR LATINO","Pbo","Placebo","Pbo","Placebo","USA","2013-05-03",-16.0,"Placebo","Placebo","2013-05-19T00:00:00","H","2013-11-17T23:59:59","H","2013-05-19","2013-11-17",183.0,null,"2013-11-17","COMPLETED",null,"2013-05-19",null,null,null,null,null,null,null,"2013-11-17","Y","White",">64","NA",null,null,null,null],["CDISCPILOT01","01-718-1150","1150","2013-01-19","2013-07-31","2013-01-19","2013-07-29",null,"2013-07-31T14:05",null,null,"718",73.0,"YEARS","F","WHITE","NOT HISPANIC OR LATINO","Pbo","Placebo","Pbo","Placebo","USA","2013-01-12",-7.0,"Placebo","Placebo","2013-01-19T00:00:00","H","2013-07-29T23:59:59","H","2013-01-19","2013-07-29",192.0,null,"2013-07-31","COMPLETED",null,"2013-01-19",null,null,null,null,null,null,null,"2013-07-31","Y","White",">64","NA",null,null,null,null],["CDISCPILOT01","01-718-1170","1170","2013-09-16","2013-11-03","2013-09-16","2013-10-12",null,"2014-03-15",null,null,"718",80.0,"YEARS","F","WHITE","NOT HISPANIC OR LATINO","Xan_Lo","Xanomeline Low Dose","Xan_Lo","Xanomeline Low Dose","USA","2013-08-25",-22.0,"Xanomeline Low Dose","Xanomeline Low Dose","2013-09-16T00:00:00","H","2013-10-12T23:59:59","H","2013-09-16","2013-10-12",27.0,null,"2013-11-03","DISCONTINUED","2014-03-15","2013-09-16",null,null,null,null,null,null,null,"2013-11-03","Y","White",">64","NA",null,null,null,null],["CDISCPILOT01","01-718-1172","1172","2013-09-21","2013-11-29","2013-09-21","2013-11-29",null,"2014-03-21",null,null,"718",74.0,"YEARS","M","WHITE","NOT HISPANIC OR LATINO","Pbo","Placebo","Pbo","Placebo","USA","2013-09-15",-6.0,"Placebo","Placebo","2013-09-21T00:00:00","H","2013-11-29T23:59:59","H","2013-09-21","2013-11-29",70.0,null,"2013-11-29","DISCONTINUED","2014-03-21","2013-09-21",null,null,null,null,null,null,null,"2013-11-29","Y","White",">64","NA",null,null,null,null],["CDISCPILOT01","01-718-1250","1250","2013-09-21","2014-02-08","2013-09-21","2014-01-31",null,"2014-03-08",null,null,"718",82.0,"YEARS","F","WHITE","HISPANIC OR LATINO","Xan_Lo","Xanomeline Low Dose","Xan_Lo","Xanomeline Low Dose","USA","2013-08-21",-31.0,"Xanomeline Low Dose","Xanomeline Low Dose","2013-09-21T00:00:00","H","2014-01-31T23:59:59","H","2013-09-21","2014-01-31",133.0,null,"2014-02-08","DISCONTINUED","2014-03-08","2013-09-21",null,null,null,null,null,null,null,"2014-02-19","Y","White",">64","NA",null,null,null,null],["CDISCPILOT01","01-718-1254","1254","2013-07-10","2014-01-09","2013-07-10","2014-01-09",null,"2014-01-09T11:10",null,null,"718",78.0,"YEARS","M","WHITE","HISPANIC OR LATINO","Xan_Lo","Xanomeline Low Dose","Xan_Lo","Xanomeline Low Dose","USA","2013-06-28",-12.0,"Xanomeline Low Dose","Xanomeline Low Dose","2013-07-10T00:00:00","H","2014-01-09T23:59:59","H","2013-07-10","2014-01-09",184.0,null,"2014-01-09","COMPLETED",null,"2013-07-10",null,null,null,null,null,null,null,"2014-01-09","Y","White",">64","NA",null,null,null,null],["CDISCPILOT01","01-718-1328","1328","2013-02-01","2013-05-01","2013-02-01","2013-04-18",null,"2013-07-24",null,null,"718",86.0,"YEARS","M","WHITE","NOT HISPANIC OR LATINO","Xan_Hi","Xanomeline High Dose","Xan_Hi","Xanomeline High Dose","USA","2013-01-28",-4.0,"Xanomeline High Dose","Xanomeline High Dose","2013-02-01T00:00:00","H","2013-04-18T23:59:59","H","2013-02-01","2013-04-18",77.0,null,"2013-05-01","DISCONTINUED","2013-07-24","2013-02-01",null,null,null,null,null,null,null,"2013-05-01","Y","White",">64","NA",null,null,null,null],["CDISCPILOT01","01-718-1355","1355","2013-02-28","2013-08-29","2013-02-28","2013-08-29",null,"2013-08-29T14:00",null,null,"718",79.0,"YEARS","M","WHITE","NOT HISPANIC OR LATINO","Pbo","Placebo","Pbo","Placebo","USA","2013-02-12",-16.0,"Placebo","Placebo","2013-02-28T00:00:00","H","2013-08-29T23:59:59","H","2013-02-28","2013-08-29",183.0,null,"2013-08-29","COMPLETED",null,"2013-02-28",null,null,null,null,null,null,null,"2013-08-29","Y","White",">64","NA",null,null,null,null],["CDISCPILOT01","01-718-1371","1371","2013-04-26","2013-08-08","2013-04-26","2013-08-01",null,"2013-08-08",null,null,"718",69.0,"YEARS","F","WHITE","NOT HISPANIC OR LATINO","Xan_Hi","Xanomeline High Dose","Xan_Hi","Xanomeline High Dose","USA","2013-04-11",-15.0,"Xanomeline High Dose","Xanomeline High Dose","2013-04-26T00:00:00","H","2013-08-01T23:59:59","H","2013-04-26","2013-08-01",98.0,null,"2013-08-08","DISCONTINUED",null,"2013-04-26",null,null,null,null,null,null,null,"2013-08-01","Y","White",">64","NA",null,null,null,null],["CDISCPILOT01","01-718-1427","1427","2012-12-17","2013-02-18","2012-12-17","2013-02-11",null,"2013-06-03",null,null,"718",74.0,"YEARS","F","BLACK OR AFRICAN AMERICAN","NOT HISPANIC OR LATINO","Xan_Hi","Xanomeline High Dose","Xan_Hi","Xanomeline High Dose","USA","2012-12-13",-4.0,"Xanomeline High Dose","Xanomeline High Dose","2012-12-17T00:00:00","H","2013-02-11T23:59:59","H","2012-12-17","2013-02-11",57.0,null,"2013-02-18","DISCONTINUED","2013-06-03","2012-12-17",null,null,null,null,null,null,null,"2013-02-25","Y","Non-white",">64","NA",null,null,null,null]]}